AccX,AccY,AccZ,GyroX,GyroY,GyroZ,Label
0.634762704372406,2.90805721282959,1.6002246141433716,0.22902509570121765,0.8146369457244873,0.3328853249549866,8
1.1665748357772827,3.3728315830230713,3.2603042125701904,0.0063913981430232525,0.8881380558013916,0.30412402749061584,8
1.9812018871307373,3.9549219608306885,5.564723491668701,-0.14007814228534698,0.740070641040802,0.2668408751487732,8
3.0756514072418213,4.872499942779541,7.914632320404053,-0.2535254657268524,0.39440253376960754,0.18322007358074188,8
3.9357683658599854,5.847239017486572,10.870573997497559,-0.31584158539772034,0.044939517974853516,0.07296846061944962,8
4.786308288574219,6.630741596221924,13.958495140075684,-0.3190372884273529,-0.049333605915308,-0.060185667127370834,8
5.4881086349487305,7.018901348114014,16.629526138305664,-0.3195699155330658,-0.028561560437083244,-0.20772044360637665,8
5.717952251434326,7.576750755310059,18.569726943969727,-0.3419398069381714,0.05186353251338005,-0.3967992961406708,8
5.406705856323242,8.087015151977539,19.772214889526367,-0.45219141244888306,0.09553808718919754,-0.49799644947052,8
5.121496677398682,8.110957145690918,21.173721313476562,-0.5965304970741272,-0.024300629273056984,-0.5139749050140381,8
4.894047737121582,7.543231964111328,22.687456130981445,-0.6306179761886597,-0.20432500541210175,-0.45272403955459595,8
4.611232280731201,7.073968410491943,22.989423751831055,-0.5523233413696289,-0.3236311078071594,-0.32489606738090515,8
4.2544965744018555,7.366060733795166,22.028751373291016,-0.5352795720100403,-0.40778452157974243,-0.2780258059501648,8
4.012382984161377,7.54083776473999,20.01432991027832,-0.5347470045089722,-0.5292210578918457,-0.23115555942058563,8
3.7945103645324707,7.382820129394531,18.073827743530273,-0.9320788979530334,-1.4426584243774414,-0.11930610239505768,8
3.2148144245147705,6.977900981903076,16.730083465576172,-1.2170287370681763,-1.8421207666397095,-0.03621792420744896,8
2.5585038661956787,6.300042629241943,15.752650260925293,-1.4556409120559692,-2.0898540019989014,0.15712186694145203,8
2.5393502712249756,5.504868030548096,14.782400131225586,-1.5919907093048096,-2.1681487560272217,0.3499290347099304,8
3.02058482170105,4.766855716705322,13.632584571838379,-1.687861680984497,-2.1345937252044678,0.5582486987113953,8
3.380014181137085,4.12251615524292,12.228983879089355,-1.7304710149765015,-1.967818260192871,0.7281533479690552,8
3.6122517585754395,3.648164749145508,10.887332916259766,-1.7267427444458008,-1.7036404609680176,0.8581117987632751,8
3.7753567695617676,3.2124202251434326,9.864709854125977,-1.632469654083252,-1.331874132156372,0.9539827704429626,8
3.725078582763672,2.7859530448913574,9.083600997924805,-1.4529778957366943,-1.049587368965149,0.997657299041748,8
3.6074633598327637,2.3259668350219727,8.242937088012695,-1.2473878860473633,-0.895128607749939,1.0035160779953003,8
3.4566287994384766,2.1104888916015625,7.375637531280518,-0.8074466586112976,-0.8392038941383362,0.9774178862571716,8
3.250727415084839,1.8731635808944702,6.290465831756592,-0.5443340539932251,-0.9004548192024231,0.9294824004173279,8
3.058892011642456,1.6193782091140747,5.2771196365356445,-0.2146444469690323,-1.0447938442230225,0.8320135474205017,8
2.5055320262908936,1.413476824760437,4.505887508392334,0.050598569214344025,-1.2115027904510498,0.7345447540283203,8
1.6720505952835083,1.4805145263671875,3.880701780319214,0.38035476207733154,-1.4043099880218506,0.6269562244415283,8
0.5222352743148804,1.3724761009216309,3.0756514072418213,0.6839461922645569,-1.516692042350769,0.5742271542549133,8
-1.0396820306777954,-0.12210428714752197,1.8516157865524292,0.8959275484085083,-1.5316053628921509,0.5960644483566284,8
-2.8290486335754395,1.0899603366851807,1.676838994026184,1.1627683639526367,-1.208307147026062,0.775556206703186,8
-2.2661118507385254,2.1535844802856445,2.1080946922302246,1.3939239978790283,-1.178480625152588,0.9039167761802673,8
-1.2886791229248047,1.0660183429718018,2.1751322746276855,1.7598315477371216,-1.383538007736206,0.868231475353241,8
-0.7784148454666138,-0.2777273952960968,1.6481086015701294,2.1411850452423096,-1.59871506690979,0.7009899020195007,8
-0.5198410153388977,-0.43364977836608887,1.1162965297698975,2.5070924758911133,-1.7057709693908691,0.4671046733856201,8
-0.0694318488240242,0.10295066982507706,0.8215104341506958,2.8821210861206055,-1.9236111640930176,0.09959928691387177,8
0.4958990216255188,0.21787235140800476,0.6850409507751465,3.173995018005371,-2.2480411529541016,-0.31211328506469727,8
0.6251859068870544,-0.19871874153614044,0.4073135554790497,3.407280921936035,-2.62406849861145,-0.7920007705688477,8
-1.1665748357772827,-0.795174241065979,-0.9726444482803345,3.4903690814971924,-2.7822554111480713,-1.1744194030761719,8
-3.7107133865356445,-0.20350714027881622,-2.120065689086914,3.4051504135131836,-2.7572224140167236,-1.274551272392273,8
-4.779125690460205,0.43843817710876465,-2.4576480388641357,3.1345813274383545,-2.544708490371704,-1.2681598663330078,8
-4.460397720336914,0.4671685993671417,-2.117671489715576,2.3840579986572266,-1.753706455230713,-1.2915949821472168,8
-3.828029155731201,0.5413888692855835,-1.9812018871307373,2.18113112449646,-1.5321379899978638,-1.3107692003250122,8
-2.2685060501098633,0.6275801062583923,-1.5427637100219727,1.750244379043579,-1.0660985708236694,-1.3704222440719604,8
-0.5222352743148804,1.0995371341705322,-1.2551602125167847,1.1510508060455322,-0.7529200315475464,-1.4769456386566162,8
3.451840400695801,1.3221979141235352,0.8191162347793579,0.7132400870323181,-0.4205673038959503,-1.8849964141845703,8
4.51067590713501,3.1956608295440674,2.8889036178588867,0.4298880994319916,-0.434415340423584,-2.292980670928955,8
3.6361937522888184,5.207687854766846,4.963479518890381,0.25032976269721985,-0.511644721031189,-2.5198752880096436,8
1.9593547582626343,7.730278968811035,6.898892402648926,0.19760072231292725,-0.5164383053779602,-2.4453089237213135,8
1.8851345777511597,9.38556957244873,7.186495780944824,0.09054480493068695,-0.15745475888252258,-2.2162837982177734,8
2.4361002445220947,11.728296279907227,8.467991828918457,-0.19333979487419128,0.21963773667812347,-1.7459169626235962,8
3.9333741664886475,14.502278327941895,10.616787910461426,-1.2479205131530762,-0.27676084637641907,-0.3952014446258545,8
8.746018409729004,17.14218521118164,15.869965553283691,-1.3975857496261597,-0.5009924173355103,-0.2332860380411148,8
15.3453369140625,18.924367904663086,22.306777954101562,-1.3975857496261597,-0.5009924173355103,-0.2332860380411148,8
20.452468872070312,18.251298904418945,25.614965438842773,-2.2764694690704346,-2.919670581817627,0.44207170605659485,8
23.36800765991211,16.272491455078125,25.65327262878418,-1.9472459554672241,-1.7856634855270386,0.25938424468040466,8
23.1402587890625,14.468759536743164,24.03628921508789,-1.4417928457260132,-0.05892070010304451,0.11291470378637314,8
20.39261245727539,12.971485137939453,21.544822692871094,-0.5507254600524902,2.6959049701690674,0.018641578033566475,8
15.695189476013184,12.466010093688965,18.972251892089844,-0.06817491352558136,3.9262492656707764,0.0964035913348198,8
10.676643371582031,12.454038619995117,16.406566619873047,0.33714625239372253,4.47218132019043,0.4809527099132538,8
7.0931220054626465,11.943774223327637,13.946524620056152,0.40964868664741516,4.089230060577393,0.8325461745262146,8
5.28190803527832,11.0887451171875,11.60140323638916,0.3163742125034332,3.062877893447876,1.2682265043258667,8
4.726154327392578,10.43004035949707,9.864709854125977,0.1171756312251091,1.4788097143173218,1.6751455068588257,8
5.0161519050598145,10.056245803833008,8.614038467407227,0.02663082629442215,0.31823837757110596,1.8833985328674316,8
5.698798656463623,9.6896333694458,7.7661919593811035,0.035685304552316666,-0.3369465172290802,1.9835305213928223,8
6.721721172332764,8.96389102935791,7.2894463539123535,0.13581721484661102,-0.8977916836738586,2.002704620361328,8
7.737461566925049,8.010400772094727,6.85100793838501,0.13581721484661102,-0.8977916836738586,2.002704620361328,8
8.298004150390625,6.8342485427856445,6.32637882232666,0.34460288286209106,-1.0895336866378784,1.7124286890029907,8
8.159140586853027,5.71316385269165,5.55514669418335,0.44426873326301575,-0.9601078629493713,1.4226852655410767,8
7.5097126960754395,4.915595531463623,4.55616569519043,0.491671621799469,-0.7965945601463318,1.1025828123092651,8
6.640318393707275,4.311957359313965,3.6361937522888184,0.49646517634391785,-0.656516432762146,0.7707626819610596,8
5.674856662750244,3.4757823944091797,2.8936920166015625,0.5087153315544128,-0.518568754196167,0.3712337017059326,8
4.757278919219971,2.428917646408081,2.139219284057617,0.5433354377746582,-0.40671929717063904,0.049533337354660034,8
3.7322611808776855,1.5260043144226074,1.4948797225952148,0.5944666266441345,-0.34014222025871277,-0.2348838746547699,8
2.61357045173645,0.8529343605041504,0.8601169586181641,0.6445325613021851,-0.32948988676071167,-0.4276910722255707,8
1.5643115043640137,0.2876034677028656,0.36661213636398315,0.7260228991508484,-0.3497293293476105,-0.6806839108467102,8
0.7448959946632385,-0.21547815203666687,0.11013327538967133,0.8320135474205017,-0.41577377915382385,-0.8953283429145813,8
0.38815996050834656,-0.8649053573608398,-0.21547815203666687,0.9390695095062256,-0.5702325701713562,-1.1547125577926636,8
-0.9678560495376587,-1.2120646238327026,-0.512658417224884,1.0615712404251099,-0.7396045923233032,-1.38853120803833,8
-1.7223289012908936,-1.391629695892334,-0.8888474106788635,1.14519202709198,-0.9079114198684692,-1.564294695854187,8
-2.455253839492798,-1.7414824962615967,-1.2336124181747437,1.2304106950759888,-1.1582411527633667,-1.7832000255584717,8
-2.8697500228881836,-2.230198860168457,-1.4876971244812012,1.2639656066894531,-1.2727537155151367,-1.8999096155166626,8
-3.181295394897461,-2.687790632247925,-1.820491075515747,1.2639656066894531,-1.3217544555664062,-2.0389225482940674,8
-3.6074633598327637,-2.9607295989990234,-2.2661118507385254,1.2005841732025146,-1.2589056491851807,-2.1220107078552246,8
-4.072237968444824,-3.0086138248443604,-2.6470892429351807,1.1132351160049438,-1.177947998046875,-2.157696008682251,8
-4.6950297355651855,-2.9415760040283203,-2.90805721282959,0.9763526320457458,-1.0591745376586914,-2.143315315246582,8
-5.423465251922607,-2.7141268253326416,-3.061286211013794,0.8336114287376404,-1.009108543395996,-2.0474443435668945,8
-6.106112003326416,-2.4815900325775146,-3.269881010055542,0.6408042311668396,-1.116697072982788,-1.7991786003112793,8
-6.3838396072387695,-2.273294448852539,-3.2531216144561768,0.5140414834022522,-1.275949478149414,-1.578142762184143,8
-6.625953197479248,-1.4110826253890991,-3.1693243980407715,0.3179720640182495,-1.5864648818969727,-1.1557778120040894,8
-5.464166641235352,-0.27054479718208313,-2.4025814533233643,0.1821548491716385,-1.9225459098815918,-0.8271534442901611,8
-3.229179620742798,1.1976994276046753,-1.324592113494873,0.0953383520245552,-2.2485737800598145,-0.5933347940444946,8
-1.0899603366851807,3.4781765937805176,-0.21787235140800476,0.023967742919921875,-2.483457565307617,-0.418103963136673,8
0.2828150689601898,7.004237174987793,0.4887164235115051,-0.20772044360637665,-2.572937250137329,-0.1278279572725296,8
1.128267526626587,11.385625839233398,0.8215104341506958,-0.6215634942054749,-2.432326555252075,0.2753627300262451,8
1.8109142780303955,16.267702102661133,1.63613760471344,-1.6266108751296997,-1.6604984998703003,1.2495849132537842,8
4.771644115447998,21.669620513916016,3.0708630084991455,-2.532125473022461,-0.7918010354042053,2.0618250370025635,8
13.589488983154297,25.672426223754883,6.853402137756348,-4.012799263000488,0.563774585723877,2.9273934364318848,8
26.163536071777344,27.75867462158203,13.800477981567383,-4.759594440460205,1.3131660223007202,2.9241979122161865,8
37.38396453857422,27.27025604248047,22.862531661987305,-4.98755407333374,1.6045072078704834,2.7297263145446777,8
43.27669143676758,25.317785263061523,31.253908157348633,-4.98755407333374,1.6045072078704834,2.7297263145446777,8
40.028358459472656,23.288700103759766,35.08882141113281,-3.3353111743927,2.5477709770202637,-0.7030537724494934,8
30.503925323486328,21.501726150512695,34.16914749145508,-2.3371877670288086,2.578662872314453,-1.2708230018615723,8
20.18671226501465,19.48012351989746,32.322322845458984,-0.7222279906272888,2.3853230476379395,-1.3752158880233765,8
12.056302070617676,17.340904235839844,29.54833984375,0.6887397170066833,2.068948745727539,-0.9874709844589233,8
7.296628952026367,15.230414390563965,25.35609245300293,1.9771391153335571,1.5251474380493164,-0.4228975176811218,8
5.291484832763672,13.405135154724121,20.349517822265625,2.824598550796509,0.9722914695739746,0.0159784946590662,8
5.291484832763672,11.740267753601074,15.429133415222168,3.7193942070007324,0.22176820039749146,0.4713656008243561,8
6.244976043701172,10.09934139251709,11.280281066894531,4.193422794342041,-0.1334870159626007,0.6013906002044678,8
6.999448776245117,8.54460620880127,7.504924297332764,4.42617654800415,-0.24959741532802582,0.5449332594871521,8
7.0931220054626465,6.788758754730225,4.16800594329834,4.38409948348999,-0.016843996942043304,0.13368675112724304,8
6.795941352844238,5.159803867340088,1.4446014165878296,4.38409948348999,-0.016843996942043304,0.13368675112724304,8
5.952883243560791,3.401561975479126,-0.7832032442092896,4.245086669921875,0.1104513481259346,-0.0745663121342659,8
4.683058738708496,1.5212159156799316,-2.687790632247925,3.9526803493499756,0.23508360981941223,-0.353124737739563,8
3.034950017929077,-0.39055415987968445,-4.350264549255371,3.633110284805298,0.25638827681541443,-0.5091813802719116,8
1.1306617259979248,-1.6912041902542114,-5.746682643890381,3.3444321155548096,0.20046353340148926,-0.5874760150909424,8
-0.37140053510665894,-2.7835588455200195,-6.640318393707275,2.8863821029663086,-0.00991998240351677,-0.6508573889732361,8
-1.5475521087646484,-3.856759548187256,-7.346907138824463,2.4772660732269287,-0.24373863637447357,-0.675890326499939,8
-2.299630641937256,-4.5394062995910645,-7.205649375915527,2.1513047218322754,-0.4626440107822418,-0.6817491054534912,8
-2.8290486335754395,-4.898836135864258,-6.570886611938477,1.7438530921936035,-0.7140390276908875,-0.697727620601654,8
-3.061286211013794,-5.162198066711426,-5.988796234130859,1.4876644611358643,-0.8088447451591492,-0.7142387628555298,8
-3.2818520069122314,-5.521627902984619,-5.502473831176758,1.1909971237182617,-0.7965945601463318,-0.7398043274879456,8
-3.6676177978515625,-5.868786811828613,-5.176563262939453,0.8533182144165039,-0.633081316947937,-0.7477935552597046,8
-3.921403169631958,-6.23539924621582,-4.898836135864258,0.5886078476905823,-0.49193793535232544,-0.7430000305175781,8
-4.532223701477051,-6.367080211639404,-4.783914089202881,0.01810896210372448,-0.34120744466781616,-0.5464645624160767,8
-5.200505256652832,-6.388628005981445,-4.776731491088867,0.01810896210372448,-0.34120744466781616,-0.5464645624160767,8
-5.705981254577637,-6.314407825469971,-4.76924991607666,-0.19653549790382385,-0.3262941837310791,-0.402658075094223,8
-6.041468620300293,-6.108506202697754,-4.613626480102539,-0.40798425674438477,-0.326826810836792,-0.22742724418640137,8
-6.2976484298706055,-5.792172431945801,-4.381389141082764,-0.6561835408210754,-0.35185977816581726,0.032489608973264694,8
-6.2976484298706055,-5.4665608406066895,-3.990834951400757,-0.927285373210907,-0.3811537027359009,0.38827744126319885,8
-5.9864020347595215,-5.042488098144531,-3.4087445735931396,-1.1078423261642456,-0.3981974124908447,0.6887397170066833,8
-5.32739782333374,-4.6255974769592285,-2.7213094234466553,-1.2452573776245117,-0.430154412984848,0.9635698199272156,8
-4.321534156799316,-4.24970817565918,-2.0865468978881836,-1.3512481451034546,-0.49939456582069397,1.1851383447647095,8
-2.857779026031494,-3.96449875831604,-1.5260043144226074,-1.4433907270431519,-0.5830153226852417,1.3246837854385376,8
-0.9367313981056213,-3.7753567695617676,-1.0205284357070923,-1.5392616987228394,-0.6405379176139832,1.3640974760055542,8
1.6193782091140747,-3.1956608295440674,-0.2585737705230713,-1.6026431322097778,-0.686875581741333,1.2943247556686401,8
4.55616569519043,-2.2014684677124023,0.6443395614624023,-1.7128946781158447,-0.7534526586532593,1.0322773456573486,8
6.086958408355713,0.035913024097681046,1.9258359670639038,-1.8220810890197754,-0.8658347129821777,0.8815469145774841,8
4.642356872558594,4.136881351470947,2.9990367889404297,-2.096977710723877,-1.0176304578781128,1.0924630165100098,8
2.5824458599090576,9.526827812194824,5.073612689971924,-2.6098875999450684,-1.1609042882919312,1.9739433526992798,8
4.460397720336914,14.499883651733398,9.117119789123535,-3.3608767986297607,-1.0549135208129883,3.528717517852783,8
12.566566467285156,17.99721336364746,14.375385284423828,-3.8668625354766846,-0.5750260949134827,4.521514892578125,8
25.923816680908203,20.51022720336914,20.821474075317383,-4.10760498046875,-0.14094364643096924,4.690354347229004,8
40.509891510009766,22.023962020874023,28.819904327392578,-3.790698289871216,0.2841508984565735,3.7987542152404785,8
49.37083435058594,21.300613403320312,34.540550231933594,-2.9315879344940186,0.9765523672103882,2.2024359703063965,8
47.224430084228516,20.462045669555664,36.55257797241211,-1.8439183235168457,1.37494957447052,0.7505232691764832,8
36.34906768798828,21.27906608581543,33.615787506103516,-0.8191642165184021,1.7989122867584229,0.05432688444852829,8
25.564687728881836,21.4466609954834,28.53499412536621,-0.0958709716796875,1.6487144231796265,0.035685304552316666,8
18.126501083374023,21.149778366088867,24.28767967224121,0.4810192883014679,1.2354040145874023,0.38348388671875,8
14.59565258026123,20.02151107788086,20.452468872070312,0.9497218132019043,0.8348763585090637,0.7782192826271057,8
13.697227478027344,17.946935653686523,16.794727325439453,1.2458566427230835,0.6372756361961365,0.9784830808639526,8
12.856563568115234,15.848418235778809,13.539210319519043,1.5462523698806763,0.6415365934371948,1.0919303894042969,8
11.316194534301758,13.90821647644043,10.79395866394043,1.825875997543335,0.7762885689735413,1.1297461986541748,8
9.287407875061035,11.792940139770508,8.000823974609375,2.074075222015381,0.893464207649231,1.180344820022583,8
8.079832077026367,9.74709415435791,5.449801445007324,2.074075222015381,0.893464207649231,1.180344820022583,8
7.75900936126709,7.761403560638428,3.5883097648620605,2.5614194869995117,0.7981258630752563,1.1095067262649536,8
7.435492515563965,5.607819080352783,1.9306243658065796,2.824598550796509,0.5653724074363708,0.9396020770072937,8
6.9060750007629395,3.449446201324463,0.19153612852096558,2.870936155319214,0.5137086510658264,0.8996558785438538,8
6.065410614013672,1.6888099908828735,-1.7678186893463135,2.870936155319214,0.5137086510658264,0.8996558785438538,8
4.853346347808838,0.3594295382499695,-3.674800395965576,3.183049440383911,-0.09354077279567719,0.2146444469690323,8
3.3081881999969482,-0.3833715617656708,-5.135861873626709,3.0962328910827637,-0.25918450951576233,-0.10492545366287231,8
2.2397756576538086,-1.4661492109298706,-6.28088903427124,2.954024314880371,-0.46104615926742554,-0.37975558638572693,8
1.0205284357070923,-2.230198860168457,-7.064391613006592,2.8251311779022217,-0.6224289536476135,-0.5278229713439941,8
0.1867477297782898,-2.8075008392333984,-7.610568523406982,2.4309282302856445,-1.0479896068572998,-0.8756215572357178,8
-0.2777273952960968,-3.375225782394409,-8.12053394317627,2.0671513080596924,-1.3260153532028198,-1.1653649806976318,8
-0.6036381125450134,-3.9501335620880127,-8.573336601257324,1.7118960618972778,-1.5156269073486328,-1.433271050453186,8
-0.9415197968482971,-4.527435302734375,-8.779537200927734,1.0903326272964478,-1.708966612815857,-1.8370609283447266,8
-1.4757261276245117,-5.042488098144531,-8.757989883422852,0.6413368582725525,-1.746249794960022,-2.101771354675293,8
-2.36188006401062,-5.483320236206055,-8.558971405029297,0.04154408723115921,-1.6844662427902222,-2.3792645931243896,8
-3.360860586166382,-5.856815814971924,-8.087015151977539,-0.6854774355888367,-1.4783437252044678,-2.5859198570251465,8
-4.41969633102417,-6.254552841186523,-7.380425930023193,-1.143527626991272,-1.264764428138733,-2.634920358657837,8
-5.418676853179932,-6.649895191192627,-6.5277910232543945,-1.6521763801574707,-0.9313465356826782,-2.592311143875122,8
-6.407781600952148,-6.822277545928955,-5.478531837463379,-2.064488172531128,-0.5915372371673584,-2.438385009765625,8
-7.339724540710449,-6.716932773590088,-4.290409564971924,-2.3089592456817627,-0.3465336263179779,-2.232795000076294,8
-8.072649955749512,-6.32637882232666,-3.133411407470703,-2.3089592456817627,-0.3465336263179779,-2.232795000076294,8
-8.482357025146484,-5.7993550300598145,-2.0242974758148193,-2.563549757003784,0.13708217442035675,-1.37947678565979,8
-8.446444511413574,-5.279513835906982,-1.027711033821106,-2.5049619674682617,0.2175072729587555,-0.9081111550331116,8
-8.082226753234863,-4.805461883544922,-0.2561795711517334,-2.363818645477295,0.1418757289648056,-0.29134124517440796,8
-6.798335552215576,-4.311957359313965,0.5150526165962219,-2.247708320617676,-0.006191667169332504,0.10066451877355576,8
-4.534617900848389,-3.447052001953125,1.2360066175460815,-2.0991082191467285,-0.21284687519073486,0.47349607944488525,8
-1.4661492109298706,-1.9066823720932007,2.211045265197754,-1.9851282835006714,-0.8423995971679688,0.8581117987632751,8
0.7975684404373169,0.47913962602615356,3.5619735717773438,-1.9851282835006714,-0.8423995971679688,0.8581117987632751,8
1.224035620689392,4.343081951141357,4.901230335235596,-2.1086952686309814,-0.9766189455986023,1.1031153202056885,8
1.8133084774017334,8.702624320983887,7.4426751136779785,-2.3797972202301025,-1.0224239826202393,1.6591670513153076,8
4.019565582275391,12.22658920288086,11.852794647216797,-2.747835159301758,-0.7422676682472229,2.7036280632019043,8
9.138668060302734,14.50706672668457,17.357662200927734,-3.08817720413208,-0.06637733429670334,4.158270359039307,8
18.51944923400879,15.050849914550781,19.894319534301758,-3.331050157546997,0.639406144618988,4.883694171905518,8
25.7873477935791,14.772823333740234,25.871145248413086,-3.650087594985962,0.5488613247871399,5.421703338623047,8
32.23583221435547,14.099753379821777,35.685577392578125,-2.850097417831421,-0.5526562333106995,5.58574914932251,8
39.0608024597168,12.485163688659668,38.91685104370117,-1.709699034690857,-0.5995264649391174,5.224635124206543,8
42.002376556396484,9.615413665771484,36.612430572509766,-0.3291569948196411,-0.4008604884147644,4.454404830932617,8
40.36863327026367,7.888296127319336,32.051475524902344,0.8085784316062927,-0.1558569073677063,3.5100760459899902,8
33.49129104614258,9.608230590820312,26.879701614379883,1.8674200773239136,0.054526615887880325,2.71374773979187,8
27.109546661376953,10.889727592468262,21.008222579956055,2.3606228828430176,-0.06690994650125504,2.3238723278045654,8
22.364238739013672,10.418069839477539,15.292664527893066,2.516679525375366,-0.19367267191410065,2.0762057304382324,8
19.111116409301758,9.984419822692871,10.362703323364258,2.395775556564331,-0.15425905585289001,1.8823332786560059,8
16.816274642944336,9.694421768188477,6.53257942199707,2.0948472023010254,0.05505923181772232,1.6549060344696045,8
14.957475662231445,8.796297073364258,4.702212333679199,1.8306695222854614,0.27882474660873413,1.3992501497268677,8
13.639766693115234,8.29321575164795,3.6508584022521973,1.6991132497787476,0.4396749436855316,1.1585074663162231,8
12.705729484558105,7.433098316192627,2.70455002784729,1.6469168663024902,0.5850792527198792,0.6780874133110046,8
11.90546703338623,6.32637882232666,1.7534534931182861,1.6628953218460083,0.5611115097999573,0.2961347699165344,8
11.53197193145752,5.478531837463379,1.104325532913208,1.8109626770019531,0.43488138914108276,-0.43035414814949036,8
11.488576889038086,4.100968360900879,1.006163239479065,2.1001734733581543,0.09820117056369781,-1.1749520301818848,8
10.142436981201172,1.9138649702072144,0.9870096445083618,2.4272000789642334,-0.2746303975582123,-1.7730803489685059,8
7.663240909576416,0.20350714027881622,0.035913024097681046,2.8395118713378906,-0.6245594620704651,-2.424004316329956,8
4.508281707763672,-1.0971429347991943,-1.8468273878097534,3.1255269050598145,-0.703386664390564,-2.8948373794555664,8
2.900874614715576,-1.204882025718689,-4.288015365600586,3.207017183303833,-0.6772884726524353,-3.1270580291748047,8
-1.458966612815857,-2.5369560718536377,-5.696404457092285,3.127657413482666,-0.4658397138118744,-3.4599435329437256,8
-5.418676853179932,-3.154959201812744,-6.0510454177856445,3.033384084701538,-0.4557200074195862,-3.373659610748291,8
-7.038054943084717,-1.822885274887085,-7.3780317306518555,2.7601518630981445,-0.7507895231246948,-3.0301218032836914,8
-7.057209014892578,-1.8611925840377808,-8.628403663635254,2.5470387935638428,-1.0985881090164185,-2.827194929122925,8
-7.54083776473999,-3.5667619705200195,-10.264541625976562,2.027737617492676,-1.5289422273635864,-2.5012338161468506,8
-8.7484130859375,-3.9956233501434326,-11.96053409576416,1.327879548072815,-1.7190864086151123,-2.1140215396881104,8
-8.067861557006836,-3.1525650024414062,-10.70297908782959,0.7957956194877625,-1.9885903596878052,-1.8210158348083496,8
-7.121852397918701,-2.8266544342041016,-8.753201484680176,0.20878566801548004,-2.3742711544036865,-1.517424464225769,8
-6.137236595153809,-3.176506996154785,-7.931391716003418,-0.2652430236339569,-2.3934454917907715,-1.3294107913970947,8
-4.937143325805664,-3.296217203140259,-7.54083776473999,-1.2564423084259033,-1.8154900074005127,-1.1302121877670288,8
-4.1967363357543945,-3.245939016342163,-6.15878438949585,-1.2564423084259033,-1.8154900074005127,-1.1302121877670288,8
-3.746626377105713,-2.9319992065429688,-4.446032524108887,-1.5967843532562256,-1.531072735786438,-1.0923964977264404,8
-3.3297359943389893,-2.814683437347412,-3.0445268154144287,-1.824211597442627,-1.29512357711792,-1.0742875337600708,8
-3.0062196254730225,-2.8769326210021973,-1.942595362663269,-1.9413871765136719,-1.154512882232666,-1.0599068403244019,8
-2.790741443634033,-2.996642589569092,-1.2791022062301636,-2.074075222015381,-0.9867386817932129,-1.0130366086959839,8
-2.5800516605377197,-3.0684688091278076,-0.7999626398086548,-2.144380569458008,-0.8892698287963867,-0.9635032415390015,8
-1.9812018871307373,-3.135805606842041,-0.23702596127986908,-2.223740577697754,-0.8306820392608643,-0.89692622423172,8
-0.6970119476318359,-3.034950017929077,0.29239189624786377,-2.273806571960449,-0.910041868686676,-0.8937305212020874,8
1.1354501247406006,-2.680608034133911,0.6299743056297302,-2.4309282302856445,-1.254644751548767,-0.9528509378433228,8
3.375225782394409,-1.6313492059707642,1.1593921184539795,-2.7105519771575928,-1.7473150491714478,-0.9688294529914856,8
3.696348190307617,0.8984242081642151,1.8396447896957397,-3.2735276222229004,-2.195312023162842,-0.5698996782302856,8
0.6610989570617676,5.387552261352539,3.6074633598327637,-4.1800408363342285,-2.1068978309631348,0.7617081999778748,8
-1.0157400369644165,11.033679008483887,8.71489429473877,-4.951869010925293,-1.508170247077942,2.4133520126342773,8
4.503493309020996,15.407586097717285,16.866552352905273,-4.951869010925293,-1.508170247077942,2.4133520126342773,8
18.620006561279297,16.2365779876709,26.817453384399414,-5.285286903381348,-1.077816128730774,3.2980945110321045,8
39.93977355957031,12.933177947998047,38.75404357910156,-5.150534629821777,0.8822792768478394,6.1055827140808105,8
55.479339599609375,8.980650901794434,46.28530502319336,-3.3954968452453613,1.445254921913147,4.659995079040527,8
60.26774215698242,7.425915718078613,46.783599853515625,-1.2702903747558594,1.231675624847412,2.4650158882141113,8
46.39573669433594,11.026495933532715,38.270118713378906,0.7819476127624512,1.1970555782318115,0.6690329313278198,8
32.226253509521484,13.028945922851562,28.851028442382812,1.5888615846633911,0.7917344570159912,0.2338186502456665,8
21.897069931030273,12.401366233825684,20.342334747314453,2.093249559402466,0.3379451632499695,0.2684387266635895,8
15.549142837524414,12.13560962677002,14.018350601196289,2.2066967487335205,0.07689651101827621,0.691402792930603,8
12.281656265258789,11.8719482421875,9.153033256530762,2.054901123046875,-0.027496326714754105,1.0397340059280396,8
11.23718547821045,11.079168319702148,5.339668273925781,1.7624945640563965,-0.011517832055687904,1.2282803058624268,8
11.268310546875,10.465953826904297,2.5896284580230713,1.3768802881240845,0.0896793082356453,1.1925950050354004,8
11.311406135559082,9.869498252868652,0.5629366636276245,0.9364064335823059,0.2921401560306549,0.967298150062561,8
11.687594413757324,8.808267593383789,-0.31872808933258057,0.3398093283176422,0.6484606266021729,0.15658925473690033,8
10.969035148620605,7.768586158752441,-0.4743511974811554,0.3398093283176422,0.6484606266021729,0.15658925473690033,8
9.598653793334961,6.554127216339111,-0.3306991159915924,0.1821548491716385,0.785875678062439,-0.3430050313472748,8
7.799710750579834,5.104737281799316,-0.2585737705230713,0.1496652364730835,0.8737573623657227,-0.8378057479858398,8
5.914576053619385,3.770568370819092,-0.32112228870391846,0.2657756507396698,0.9605738520622253,-1.3549764156341553,8
3.8878843784332275,2.2900538444519043,-0.36900633573532104,0.4506601393222809,0.9461932182312012,-1.6500459909439087,8
1.3605051040649414,1.1785458326339722,-0.3259107172489166,0.9033842086791992,0.7810820937156677,-1.9339971542358398,8
-1.4086884260177612,0.4935048222541809,-0.9056068062782288,1.3534451723098755,0.5994598865509033,-2.0096287727355957,8
-5.087977886199951,0.36900633573532104,-2.61357045173645,1.7076351642608643,0.3017272651195526,-1.8348639011383057,8
-5.859210014343262,-0.26575639843940735,-3.1717185974121094,1.942518949508667,0.010852061212062836,-1.658035159111023,8
-6.254552841186523,-1.1641805171966553,-4.129698753356934,2.2125556468963623,-0.20645546913146973,-1.4812065362930298,8
-5.979219436645508,-1.8851345777511597,-4.651933670043945,2.400569200515747,-0.47915512323379517,-1.3714874982833862,8
-5.677250862121582,-2.2828712463378906,-4.846163749694824,2.5486366748809814,-0.6783537268638611,-1.3033126592636108,8
-5.471349239349365,-2.532167673110962,-5.296273231506348,2.532125473022461,-0.8088447451591492,-1.2164961099624634,8
-5.152621269226074,-2.6494834423065186,-5.8209028244018555,2.532125473022461,-0.8088447451591492,-1.2164961099624634,8
-4.537012100219727,-2.927210807800293,-6.1180830001831055,2.4506351947784424,-0.8365408182144165,-1.2340724468231201,8
-4.513070106506348,-2.730886220932007,-6.597222805023193,2.2258710861206055,-0.8397365212440491,-1.2303441762924194,8
-4.58968448638916,-2.6231472492218018,-6.764816761016846,1.9414538145065308,-0.8386712670326233,-1.1781476736068726,8
-4.891653537750244,-2.4672248363494873,-7.001842975616455,1.603774905204773,-0.9217594265937805,-1.0833419561386108,8
-5.397129058837891,-2.1080946922302246,-7.368454933166504,1.2053776979446411,-1.1321430206298828,-0.935274600982666,8
-5.789778232574463,-1.6648679971694946,-7.524077892303467,0.6594458222389221,-1.456506371498108,-0.690803587436676,8
-5.763442039489746,-1.3772644996643066,-7.193678379058838,0.18641577661037445,-1.7206841707229614,-0.45325663685798645,8
-5.166986465454102,-1.1546037197113037,-6.345532417297363,-0.2652430236339569,-1.9369264841079712,-0.22689463198184967,8
-4.0770263671875,-0.9151836037635803,-5.351639270782471,-0.6061176061630249,-2.0093624591827393,-0.053794268518686295,8
-2.469619035720825,-0.3618237376213074,-4.2975921630859375,-1.019428014755249,-1.9646226167678833,0.12090394645929337,8
-0.44322657585144043,0.694617748260498,-2.9583353996276855,-1.4018466472625732,-1.8240118026733398,0.2556559145450592,8
1.7750012874603271,2.364274263381958,-1.370081901550293,-1.7597649097442627,-1.6903250217437744,0.36697277426719666,8
3.557185173034668,4.345476150512695,0.3163338899612427,-2.134260892868042,-1.600845456123352,0.6088472604751587,8
4.618414878845215,7.507318496704102,2.4456770420074463,-2.690845251083374,-1.4197559356689453,1.2794114351272583,8
5.507262229919434,12.238560676574707,6.908469200134277,-3.0386438369750977,-1.1816762685775757,2.040520429611206,8
9.519645690917969,16.624738693237305,11.644498825073242,-3.5675320625305176,0.2734985649585724,4.085301876068115,8
19.49688148498535,19.340959548950195,17.407941818237305,-3.5675320625305176,0.2734985649585724,4.085301876068115,8
32.12809371948242,21.432294845581055,24.146421432495117,-3.3662028312683105,1.0095746517181396,4.253608703613281,8
44.46242141723633,20.08854866027832,32.274139404296875,-2.3041656017303467,1.2753502130508423,3.3204643726348877,8
52.12565994262695,16.619949340820312,39.31219482421875,-0.5501928329467773,1.353644847869873,1.8897899389266968,8
50.70978927612305,14.739304542541504,39.56358337402344,1.4370659589767456,1.5272778272628784,0.5097805857658386,8
41.13507843017578,15.093945503234863,33.52720260620117,2.7660107612609863,1.6790735721588135,-0.1906767040491104,8
31.009401321411133,14.025532722473145,24.69978141784668,3.8632006645202637,1.80743408203125,-0.5453993082046509,8
21.782148361206055,12.454038619995117,16.761207580566406,4.474112033843994,1.7025086879730225,-0.3206351399421692,8
16.085742950439453,11.654075622558594,11.105504989624023,4.628037929534912,1.2971875667572021,0.08788172155618668,8
13.407529830932617,10.786776542663574,5.945700645446777,4.51139497756958,0.8689638376235962,0.43248459696769714,8
12.67699909210205,9.601048469543457,2.098517894744873,4.18809700012207,0.541404664516449,0.5822164416313171,8
12.492345809936523,8.628403663635254,-0.3163338899612427,3.7705254554748535,0.44713157415390015,0.5364114046096802,8
12.432491302490234,7.83801794052124,-1.856404185295105,3.315670967102051,0.5105129480361938,0.3190372884273529,8
12.205041885375977,6.874950408935547,-3.0708630084991455,2.837913990020752,0.6276885867118835,-0.04687025398015976,8
11.323376655578613,5.75865364074707,-4.151246547698975,2.4495699405670166,0.755516529083252,-0.38348388671875,8
9.931747436523438,4.4077253341674805,-4.958691120147705,1.8780723810195923,0.947258472442627,-0.897991418838501,8
8.022371292114258,3.0110080242156982,-5.54317569732666,1.4269461631774902,1.0633689165115356,-1.2633663415908813,8
5.97682523727417,1.633743405342102,-5.840056419372559,1.091397762298584,1.1304785013198853,-1.4844021797180176,8
4.477157115936279,0.3043628931045532,-5.7993550300598145,0.7233598232269287,1.1842727661132812,-1.7017097473144531,8
3.1214404106140137,-0.8286930918693542,-5.435436248779297,0.4501275420188904,1.2311431169509888,-1.8924530744552612,8
2.1152772903442383,-1.5762825012207031,-4.711789131164551,0.29506954550743103,1.1800118684768677,-2.0794014930725098,8
1.391629695892334,-2.3523032665252686,-3.813663959503174,0.31690680980682373,1.0537817478179932,-2.1981749534606934,8
0.8095394372940063,-3.1717185974121094,-3.2124202251434326,0.5044544339179993,0.733146607875824,-2.368612289428711,8
0.1604115068912506,-4.002806186676025,-3.0229790210723877,0.7457296848297119,0.3683043122291565,-2.490048885345459,8
-0.5318120718002319,-4.781519889831543,-3.265092611312866,0.945460855960846,0.02736317366361618,-2.573137044906616,8
