AccX,AccY,AccZ,GyroX,GyroY,GyroZ,Label
13.453019142150879,10.444405555725098,20.61557388305664,-0.42343011498451233,-1.3611680269241333,0.6621088981628418,8
14.490306854248047,9.23682975769043,20.4500732421875,-0.42343011498451233,-1.3611680269241333,0.6621088981628418,8
15.101127624511719,8.568548202514648,20.00714683532715,-0.6348788738250732,-1.353178858757019,0.5353461503982544,8
15.28787612915039,8.45362663269043,19.90389633178711,-0.911839485168457,-1.2296117544174194,0.3749620318412781,8
15.146617889404297,8.087015151977539,21.250335693359375,-1.0939942598342896,-1.1928611993789673,0.11344731599092484,8
13.584700584411621,7.3995795249938965,21.183298110961914,-1.1137011051177979,-1.192328691482544,-0.11238208413124084,8
11.548730850219727,6.853402137756348,19.827281951904297,-1.0726896524429321,-1.1747522354125977,-0.15605664253234863,8
9.397541046142578,6.156390190124512,18.543392181396484,-0.9565792679786682,-1.1971222162246704,-0.10226237028837204,8
7.3780317306518555,5.4210710525512695,17.216405868530273,-0.6327484250068665,-1.3334720134735107,0.053794268518686295,8
5.507262229919434,5.0784010887146,15.225625991821289,-0.17682868242263794,-1.6775423288345337,0.2764279842376709,8
3.8902785778045654,4.937143325805664,13.2710599899292,0.426692396402359,-2.279465436935425,0.591270923614502,8
2.2876596450805664,4.711789131164551,11.440692901611328,0.9491891860961914,-2.564948081970215,0.9145691394805908,8
1.8492215871810913,3.7609915733337402,9.239224433898926,1.3806085586547852,-2.527132272720337,1.2352042198181152,8
2.031480073928833,3.0014309883117676,6.810306549072266,1.6857978105545044,-2.3598906993865967,1.4690228700637817,8
2.0865468978881836,2.7356746196746826,4.872499942779541,1.919083833694458,-2.1931817531585693,1.6048401594161987,8
2.2373814582824707,2.5608980655670166,2.9104514122009277,2.065020799636841,-2.009895086288452,1.6559712886810303,8
2.491166830062866,2.2469582557678223,1.0157400369644165,2.110825777053833,-1.7877938747406006,1.6293405294418335,8
2.6758196353912354,1.9907786846160889,-0.6251859068870544,2.078336238861084,-1.5784755945205688,1.5233497619628906,8
2.594416856765747,1.9282301664352417,-2.029085874557495,2.0250744819641113,-1.4815393686294556,1.4296092987060547,8
2.404975652694702,1.923441767692566,-3.1860837936401367,2.0059003829956055,-1.4522454738616943,1.395521879196167,8
2.12485408782959,1.9162591695785522,-4.072237968444824,1.694319725036621,-1.215763807296753,0.9710264801979065,8
1.8635867834091187,1.7606360912322998,-4.6471452713012695,1.4929906129837036,-1.0586419105529785,0.72176194190979,8
1.5283985137939453,1.6600795984268188,-4.982633113861084,1.2719547748565674,-0.8903350830078125,0.45272403955459595,8
1.082777738571167,1.7462708950042725,-5.138256072998047,1.0530494451522827,-0.7369415163993835,0.17736129462718964,8
0.7089830040931702,1.63613760471344,-5.219658851623535,0.8053827285766602,-0.5217644572257996,-0.15658925473690033,8
0.32112228870391846,1.5762825012207031,-5.104737281799316,0.7691648006439209,-0.4860791563987732,-0.2114487588405609,8
-0.090979665517807,1.7726070880889893,-4.815038681030273,0.5364114046096802,-0.39287126064300537,-0.6737598776817322,8
-0.5605424642562866,1.9716250896453857,-4.666299343109131,0.43361642956733704,-0.5025902390480042,-0.9640358686447144,8
-0.9367313981056213,1.9354127645492554,-4.606443881988525,0.30412402749061584,-0.7140390276908875,-1.29585599899292,8
-1.1402385234832764,1.7941548824310303,-4.501099109649658,0.19706811010837555,-0.8541171550750732,-1.520087480545044,8
-1.3437457084655762,1.5930418968200684,-4.350264549255371,0.1688394397497177,-0.8929981589317322,-1.57388174533844,8
-2.1511902809143066,1.4948797225952148,-4.824615478515625,-0.3408745527267456,-1.187535047531128,-1.949975609779358,8
-2.3977930545806885,1.0301052331924438,-5.6221842765808105,-0.45432189106941223,-1.1715565919876099,-1.9339971542358398,8
-1.3652935028076172,1.3820528984069824,-4.6471452713012695,-1.6713505983352661,-1.0591745376586914,-2.4634180068969727,8
-1.3509283065795898,0.26336219906806946,-2.0242974758148193,-1.8657556772232056,-0.2597171366214752,-2.569941282272339,8
-2.029085874557495,-1.4996681213378906,-0.6108207106590271,-2.2903175354003906,-0.04081173986196518,-2.5816588401794434,8
-3.0469210147857666,0.06464344263076782,0.26336219906806946,-2.779259443283081,0.345401793718338,-2.507625102996826,8
-4.4723687171936035,1.8516157865524292,1.3628993034362793,-2.8389124870300293,0.40292438864707947,-2.4676787853240967,8
-4.553771495819092,1.413476824760437,2.4791958332061768,-3.139840841293335,0.5541874766349792,-2.217881679534912,8
-1.779789686203003,0.8457517623901367,4.225766181945801,-3.3156044483184814,0.7118419408798218,-2.1028366088867188,8
1.6481086015701294,1.0181342363357544,6.719326972961426,-3.5158681869506836,0.7262226343154907,-2.2450451850891113,8
3.7992987632751465,1.4541782140731812,9.11233139038086,-4.405404090881348,0.06411371380090714,-2.256762742996216,8
3.0684688091278076,3.267486810684204,12.360664367675781,-4.536427974700928,-0.01950708031654358,-2.139054536819458,8
1.8468273878097534,6.896498203277588,17.26189422607422,-4.670114517211914,-0.09354077279567719,-1.9995089769363403,8
5.260360240936279,10.254964828491211,22.66590690612793,-5.087686061859131,-0.21657519042491913,-1.4865326881408691,8
12.811074256896973,10.252570152282715,26.13241195678711,-6.651514530181885,1.0841408967971802,-0.3850817382335663,8
19.999963760375977,7.337330341339111,26.91561508178711,-7.042987823486328,1.7339330911636353,-0.6311505436897278,8
22.77394676208496,3.6290111541748047,26.426898956298828,-7.719943523406982,2.7465035915374756,-1.4045097827911377,8
21.2862491607666,0.47913962602615356,25.691579818725586,-8.239777565002441,3.1406397819519043,-1.879137635231018,8
16.995840072631836,-1.755847692489624,23.849241256713867,-8.344169616699219,3.117737293243408,-1.902572751045227,8
13.151050567626953,-2.0937294960021973,24.82188606262207,-8.216341972351074,2.4465739727020264,-1.7198187112808228,8
10.54256820678711,-2.292448043823242,24.544158935546875,-7.881326198577881,1.643388271331787,-1.3539111614227295,8
9.459790229797363,-2.3714568614959717,24.139240264892578,-7.396112442016602,1.0143681764602661,-0.9256874918937683,8
8.990227699279785,-1.6959925889968872,24.443601608276367,-6.7191572189331055,0.4087831676006317,-0.5166380405426025,8
8.333916664123535,-0.05506663769483566,23.837270736694336,-6.132679462432861,-0.06371425092220306,-0.1501978635787964,8
8.592490196228027,1.0444705486297607,23.288700103759766,-5.090349197387695,-0.5840805768966675,0.18428531289100647,8
8.139687538146973,2.6686370372772217,23.430255889892578,-2.691377878189087,-1.3872662782669067,0.2982652485370636,8
7.79252815246582,2.433706045150757,22.66351318359375,-2.428265333175659,-1.4389300346374512,0.2870802879333496,8
7.67042350769043,2.8075008392333984,21.142597198486328,-1.41942298412323,-1.5997803211212158,0.2236989289522171,8
7.088333606719971,3.296217203140259,18.9267635345459,-0.51344233751297,-1.7329343557357788,0.1283605843782425,8
6.192303657531738,3.7825393676757812,16.229394912719727,0.4362795054912567,-1.746249794960022,-0.06284874677658081,8
5.238812446594238,4.165611743927002,13.654131889343262,1.3140314817428589,-1.4719523191452026,-0.24340574443340302,8
4.115333557128906,4.742913722991943,11.467028617858887,1.8849964141845703,-1.0213587284088135,-0.2774932086467743,8
3.356072187423706,4.699818134307861,9.172186851501465,2.344111919403076,-0.6437336206436157,-0.31424373388290405,8
2.8003182411193848,4.3406877517700195,6.9276227951049805,2.7132816314697266,-0.5297536849975586,-0.4133104085922241,8
2.098517894744873,3.8208465576171875,4.3622355461120605,2.9662744998931885,-0.5883415341377258,-0.5496602654457092,8
1.5188217163085938,3.770568370819092,2.2397756576538086,3.1249942779541016,-0.5398734211921692,-0.7078473567962646,8
1.183334231376648,3.447052001953125,1.0301052331924438,3.2709312438964844,-0.2847501039505005,-0.8718932271003723,8
0.8215104341506958,2.2852654457092285,-0.2082955539226532,3.356682300567627,0.09873378276824951,-1.0625699758529663,8
-0.16519992053508759,0.9941922426223755,-0.3115454912185669,3.4711949825286865,0.2687050402164459,-1.1909304857254028,8
-1.7199347019195557,0.3618237376213074,0.8286930918693542,3.6544151306152344,0.24147501587867737,-1.1557778120040894,8
-2.5465328693389893,-0.6323685050010681,2.211045265197754,4.066127777099609,0.13548432290554047,-1.00504732131958,8
-2.683002233505249,-1.7462708950042725,3.698742389678955,4.837888717651367,-0.1446719616651535,-0.9475247859954834,8
-2.522291421890259,-3.5715503692626953,4.055478572845459,5.591075420379639,-0.619233250617981,-0.9501878619194031,8
-3.3010056018829346,-5.433042049407959,3.250727415084839,6.1524529457092285,-0.9664992094039917,-0.9480574131011963,8
-4.424484729766846,-6.666654586791992,1.8061258792877197,6.822484493255615,-1.269558072090149,-0.8260881900787354,8
-5.45458984375,-7.413944721221924,-0.713771402835846,7.042987823486328,-1.2887321710586548,-0.621030867099762,8
-6.242581844329834,-7.521683692932129,-3.9142205715179443,6.833137035369873,-1.1577085256576538,-0.32755914330482483,8
-6.810306549072266,-7.227197170257568,-6.664260387420654,6.421957015991211,-0.9430640935897827,-0.06764229387044907,8
-6.98508358001709,-6.367080211639404,-8.230966567993164,5.545803070068359,-0.44773074984550476,0.3824186623096466,8
-6.692990779876709,-5.5096564292907715,-8.470386505126953,4.657864570617676,-0.08981245756149292,0.7467949390411377,8
-5.413888454437256,-4.551377296447754,-8.072649955749512,3.7050135135650635,0.0886140689253807,1.0157662630081177,8
-4.098574161529541,-3.768174171447754,-6.6594719886779785,3.005688190460205,0.12270152568817139,1.149985671043396,8
-2.747645616531372,-2.773982048034668,-4.580107688903809,2.1470437049865723,-0.06850779801607132,1.3103032112121582,8
-1.8971055746078491,-1.4517840147018433,-1.9692308902740479,1.6607648134231567,-0.4424045979976654,1.5760788917541504,8
-0.7305307984352112,0.9056068062782288,1.6241666078567505,1.4077720642089844,-0.7742246985435486,1.896181344985962,8
0.8047510385513306,4.256890773773193,5.061641693115234,1.1696923971176147,-1.1838067770004272,2.2908501625061035,8
3.8016929626464844,7.89547872543335,8.183082580566406,0.6802178621292114,-1.6168240308761597,3.020068883895874,8
9.852738380432129,12.065878868103027,11.986869812011719,-0.1704372763633728,-1.264764428138733,3.9153971672058105,8
19.027318954467773,15.374067306518555,16.471210479736328,-2.3616881370544434,1.3797430992126465,3.2901053428649902,8
28.978219985961914,14.047080993652344,20.354305267333984,-2.3616881370544434,1.3797430992126465,3.2901053428649902,8
35.98963928222656,12.434885025024414,23.37997817993164,-2.4873857498168945,1.7797380685806274,2.8437726497650146,8
34.86137390136719,10.784381866455078,26.165931701660156,-2.311622142791748,2.5573582649230957,1.8828659057617188,8
29.782970428466797,10.959458351135254,28.70977020263672,-1.7272753715515137,2.7283947467803955,1.3017812967300415,8
23.430255889892578,11.344924926757812,29.18651580810547,-0.9880036115646362,2.2223424911499023,1.1143003702163696,8
19.00098419189453,11.136629104614258,26.62082862854004,-0.2870802879333496,1.5725502967834473,1.1846057176589966,8
16.48796844482422,10.300454139709473,23.159412384033203,0.7127074599266052,0.9893351793289185,1.6724823713302612,8
15.616180419921875,9.572318077087402,20.234596252441406,0.7127074599266052,0.9893351793289185,1.6724823713302612,8
15.204078674316406,9.380781173706055,16.976686477661133,0.8623726963996887,0.763505756855011,1.801908254623413,8
15.455769538879395,9.596260070800781,14.775217056274414,1.0562450885772705,0.43807709217071533,1.8871269226074219,8
16.56218910217285,9.711181640625,13.09837818145752,1.243193507194519,0.13654956221580505,1.7049720287322998,8
17.796100616455078,9.40711784362793,11.162965774536133,1.402445912361145,0.18927858769893646,1.2330738306045532,8
16.332345962524414,8.884882926940918,8.892065048217773,1.5462523698806763,0.6457974910736084,0.645065188407898,8
15.194501876831055,6.977900981903076,6.62355899810791,1.5462523698806763,0.6457974910736084,0.645065188407898,8
13.084012985229492,5.3226094245910645,5.241206645965576,1.558502435684204,0.7262226343154907,0.4692351520061493,8
10.439617156982422,5.011363506317139,4.24970817565918,1.6607648134231567,0.8199630975723267,-0.5347470045089722,8
7.425915718078613,4.889259338378906,3.5404257774353027,1.9920523166656494,0.8993229866027832,-0.774957001209259,8
4.565742492675781,4.364629745483398,3.1142578125,2.3100244998931885,0.8391373157501221,-0.7978595495223999,8
2.251746654510498,3.6843771934509277,2.747645616531372,2.9114151000976562,0.3651086091995239,-0.7057169079780579,8
0.5653308629989624,2.879326820373535,1.9569605588912964,3.3508236408233643,-0.1457371860742569,-0.6157047152519226,8
-0.6251859068870544,1.9521721601486206,0.9630676507949829,3.903679609298706,-0.7949967384338379,-0.49693119525909424,8
-1.14742112159729,0.6491279602050781,0.040701430290937424,4.4394917488098145,-1.302047610282898,-0.4271584451198578,8
-1.5403695106506348,-0.8143278360366821,-0.7927800416946411,4.9209771156311035,-1.7206841707229614,-0.4244953691959381,8
-2.2445640563964844,-2.1344308853149414,-1.8348562717437744,5.374300479888916,-2.147376537322998,-0.4569849669933319,8
-3.063680410385132,-3.207631826400757,-3.135805606842041,5.5585856437683105,-2.404630422592163,-0.47243085503578186,8
-3.7609915733337402,-4.136881351470947,-4.599261283874512,5.597999095916748,-2.7673423290252686,-0.49320289492607117,8
-4.4723687171936035,-4.937143325805664,-6.177937984466553,5.340745449066162,-2.9532253742218018,-0.4766917824745178,8
-4.939537525177002,-5.035305500030518,-7.507318496704102,4.956130027770996,-2.896768093109131,-0.4580501914024353,8
-5.011363506317139,-5.023334503173828,-7.881113529205322,4.185433864593506,-2.2565629482269287,-0.48574626445770264,8
-3.9980175495147705,-3.9597103595733643,-7.646481513977051,3.6160666942596436,-1.5017788410186768,-0.5054530501365662,8
-4.721365928649902,-5.540781497955322,-6.175543785095215,3.0371124744415283,-1.3547766208648682,-0.4170387387275696,8
-4.5825018882751465,-5.433042049407959,-7.064391613006592,2.251436471939087,-1.4714196920394897,-0.3818860352039337,8
-4.898836135864258,-5.351639270782471,-7.603385925292969,1.1318767070770264,-1.2802103757858276,-0.27376487851142883,8
-5.58866548538208,-4.522646903991699,-6.395810604095459,0.25086238980293274,-1.0724899768829346,-0.1059906855225563,8
-5.765836238861084,-4.009988784790039,-4.63517427444458,-0.4884093403816223,-0.8045838475227356,0.12516488134860992,8
-5.2555718421936035,-4.0219597816467285,-2.922422409057617,-1.1003856658935547,-0.47116589546203613,0.3211677670478821,8
-4.398148536682129,-3.8208465576171875,-1.1522095203399658,-1.4700216054916382,-0.261847585439682,0.43195199966430664,8
-3.3057940006256104,-3.7059249877929688,0.6251859068870544,-1.7821348905563354,-0.060518551617860794,0.5097805857658386,8
-2.3283610343933105,-3.6385879516601562,2.0673930644989014,-1.9488438367843628,0.08382052183151245,0.5348135828971863,8
-1.2216414213180542,-3.1453824043273926,3.3441011905670166,-1.9904544353485107,0.24626855552196503,0.5486615896224976,8
0.5988497138023376,-2.163161277770996,4.750096321105957,-1.9163541793823242,0.3464670479297638,0.5433354377746582,8
2.6255414485931396,-1.3652935028076172,5.9433064460754395,-1.739525556564331,0.4077179431915283,0.5241612195968628,8
4.405331134796143,0.05267243832349777,6.800729751586914,-1.5365986824035645,0.38481542468070984,0.5859447121620178,8
5.993584632873535,2.7213094234466553,7.038054943084717,-1.496652364730835,0.42476168274879456,0.9577110409736633,8
7.208043575286865,6.256947040557861,7.449857711791992,-1.6314043998718262,0.5754921436309814,1.4226852655410767,8
8.637980461120605,10.801141738891602,8.52066421508789,-1.9814000129699707,0.9328778386116028,2.2077620029449463,8
11.807305335998535,15.251962661743164,10.214262962341309,-2.631192207336426,1.5800068378448486,3.347627878189087,8
17.553987503051758,18.071434020996094,12.566566467285156,-3.121731996536255,2.0066328048706055,3.987300395965576,8
25.59820556640625,19.453786849975586,15.934609413146973,-3.121731996536255,2.0066328048706055,3.987300395965576,8
35.19446563720703,18.605640411376953,22.160430908203125,-3.865264654159546,2.148308753967285,4.220053672790527,8
43.69118881225586,16.49275779724121,27.22925567626953,-3.3843119144439697,1.922479271888733,3.2176694869995117,8
46.00278854370117,15.450981140136719,29.428329467773438,-2.158228635787964,1.805303692817688,1.5648938417434692,8
42.47673034667969,16.2557315826416,28.137256622314453,-1.1254186630249023,1.4905272722244263,0.4346150755882263,8
35.7119140625,17.525257110595703,24.318803787231445,-0.4804200828075409,1.1432613134384155,-0.14167599380016327,8
29.49327278137207,17.21161651611328,19.439420700073242,-0.13421936333179474,0.9078448414802551,-0.394668847322464,8
25.06160545349121,15.89390754699707,14.959870338439941,0.2876129150390625,0.7091788649559021,-0.6412702798843384,8
21.9329833984375,14.50946044921875,11.587038040161133,0.480486661195755,0.7890713810920715,-0.7776201367378235,8
19.168577194213867,13.038522720336914,9.093177795410156,0.6812831163406372,0.7959953546524048,-0.9411333799362183,8
16.344316482543945,11.735479354858398,7.143400192260742,0.9486565589904785,0.7240921258926392,-1.1057119369506836,8
13.807660102844238,10.195109367370605,5.250783443450928,1.2357368469238281,0.585611879825592,-1.2473878860473633,8
11.606191635131836,8.860940933227539,3.701136589050293,1.4759469032287598,0.49879536032676697,-1.3539111614227295,8
9.658509254455566,7.802104949951172,2.313995838165283,1.7465161085128784,0.4066527187824249,-1.466293215751648,8
7.8547773361206055,6.1611785888671875,1.1402385234832764,2.0714120864868164,0.3363473415374756,-1.5403269529342651,8
5.93133544921875,4.316745758056641,0.26815059781074524,2.3899168968200684,0.23668146133422852,-1.5387290716171265,8
3.9788639545440674,2.9343934059143066,-0.7018003463745117,2.6503663063049316,0.08701622486114502,-1.4993155002593994,8
2.2230162620544434,1.8037316799163818,-1.7079635858535767,3.010481595993042,-0.1452045738697052,-1.3832050561904907,8
0.7879916429519653,0.5773018598556519,-2.637512445449829,3.211810827255249,-0.3241637349128723,-1.2825405597686768,8
-0.2852092683315277,-0.47913962602615356,-3.677194595336914,3.384378433227539,-0.5526562333106995,-1.1525821685791016,8
-0.9702502489089966,-1.490091323852539,-4.798279285430908,3.460010051727295,-0.7289522886276245,-1.0386022329330444,8
-1.4086884260177612,-2.4839842319488525,-5.837662220001221,3.399291753768921,-0.8466604948043823,-0.943263828754425,8
-1.8037316799163818,-3.3488895893096924,-6.585251808166504,3.276257276535034,-0.8945959806442261,-0.9081111550331116,8
-2.2373814582824707,-4.029142379760742,-7.162553787231445,2.9849159717559814,-1.0043150186538696,-0.8990566730499268,8
-2.857779026031494,-4.4939165115356445,-7.646481513977051,2.724999189376831,-1.1177623271942139,-0.9006544947624207,8
-3.5212721824645996,-4.757278919219971,-7.9625163078308105,2.331861734390259,-1.2818082571029663,-0.8947957158088684,8
-3.947739362716675,-5.083189487457275,-7.952939510345459,1.8051038980484009,-1.4996483325958252,-0.8846760392189026,8
-4.179976940155029,-5.428253650665283,-7.720701694488525,1.3321404457092285,-1.6567702293395996,-0.8868064880371094,8
-4.189553737640381,-5.545569896697998,-7.2463507652282715,0.8511877655982971,-1.7521085739135742,-0.9033176302909851,8
-4.038719177246094,-5.626972675323486,-6.721721172332764,0.5550529956817627,-1.7723480463027954,-0.9288831949234009,8
-3.8471827507019043,-5.773018836975098,-6.125265598297119,0.5550529956817627,-1.7723480463027954,-0.9288831949234009,8
-3.8016929626464844,-5.868786811828613,-5.416282653808594,-0.5352795720100403,-1.5742146968841553,-1.0439283847808838,8
-3.8854901790618896,-5.7754130363464355,-4.575319290161133,-1.0854724645614624,-1.3414613008499146,-1.0631026029586792,8
-4.098574161529541,-5.576694488525391,-3.6098575592041016,-1.4918588399887085,-1.1497193574905396,-1.0183627605438232,8
-4.400542736053467,-5.358821868896484,-2.6087820529937744,-1.7762761116027832,-1.0064455270767212,-0.9336767196655273,8
-4.637568473815918,-5.114314079284668,-1.5044565200805664,-2.064488172531128,-0.8722261190414429,-0.7648373246192932,8
-4.8126444816589355,-4.711789131164551,-0.34027591347694397,-2.2780673503875732,-0.802453339099884,-0.5267577171325684,8
-4.656722068786621,-4.136881351470947,0.9271546006202698,-2.3883190155029297,-0.8061816692352295,-0.21997061371803284,8
-4.1967363357543945,-3.5835213661193848,2.122459888458252,-2.4021670818328857,-0.8376060128211975,0.12356702983379364,8
-3.5859155654907227,-2.881721019744873,3.245939016342163,-2.3094918727874756,-0.8754218220710754,0.5039218068122864,8
-2.532167673110962,-1.9114707708358765,4.28322696685791,-2.153435230255127,-0.9308139085769653,0.9177648425102234,8
-0.8672995567321777,-0.43604397773742676,5.567117691040039,-1.8886581659317017,-1.062902808189392,1.412032961845398,8
0.982221245765686,1.4805145263671875,6.542156219482422,-1.6836007833480835,-1.1129688024520874,1.9063010215759277,8
3.27227520942688,3.6652235984802246,7.363666534423828,-1.5776101350784302,-1.0900663137435913,2.5422451496124268,8
7.334936141967773,6.24737024307251,8.515875816345215,-1.5941212177276611,-1.0533157587051392,3.2086150646209717,8
13.112743377685547,8.779537200927734,10.13286018371582,-1.733134150505066,-1.208839774131775,3.74442720413208,8
19.942502975463867,11.900678634643555,12.286444664001465,-1.9067671298980713,-1.4011143445968628,3.983572006225586,8
26.767175674438477,15.525200843811035,14.74409294128418,-2.1598265171051025,-1.392592430114746,4.098617076873779,8
32.79397964477539,17.74821662902832,16.952743530273438,-2.4740703105926514,-0.8914003372192383,3.9798436164855957,8
38.9288215637207,18.301576614379883,18.75408172607422,-2.8192057609558105,0.06997249275445938,3.5415003299713135,8
43.32936477661133,17.786523818969727,21.305402755737305,-2.9821863174438477,1.2385996580123901,2.536386489868164,8
43.432315826416016,18.133684158325195,23.962068557739258,-2.747302532196045,1.7669552564620972,1.566491723060608,8
39.49654769897461,19.340959548950195,25.135826110839844,-2.3670144081115723,1.8527065515518188,0.9305475950241089,8
34.197879791259766,19.326595306396484,23.866300582885742,-1.7011771202087402,1.7999775409698486,0.2769605815410614,8
29.078777313232422,18.186355590820312,21.305402755737305,-1.1696258783340454,1.8042384386062622,-0.05432688444852829,8
24.352323532104492,16.634315490722656,18.260875701904297,-0.7690982222557068,1.8670871257781982,-0.2343512624502182,8
20.043060302734375,15.20168399810791,15.196895599365234,-0.1704372763633728,1.8724133968353271,-0.42236489057540894,8
16.30122184753418,13.898639678955078,12.092514038085938,0.20558997988700867,1.7467159032821655,-0.5081161260604858,8
13.00979232788086,12.59769058227539,8.992621421813965,0.20558997988700867,1.7467159032821655,-0.5081161260604858,8
10.250176429748535,11.287464141845703,6.132448196411133,0.9364064335823059,1.1965229511260986,-0.5304860472679138,8
8.190264701843262,10.063427925109863,3.808875560760498,1.2181605100631714,0.8753552436828613,-0.4782896339893341,8
6.819883346557617,8.815450668334961,1.901893973350525,1.390728235244751,0.6351451873779297,-0.4660394489765167,8
5.907393455505371,7.516895294189453,0.34506431221961975,1.503110408782959,0.4950670599937439,-0.4878767132759094,8
5.214870452880859,6.211457252502441,-0.7425017952919006,1.6815369129180908,0.3539236783981323,-0.5592473149299622,8
4.781519889831543,4.860528945922852,-1.514033317565918,1.8274738788604736,0.2687050402164459,-0.6439333558082581,8
4.014777183532715,3.8160581588745117,-2.4576480388641357,2.00856351852417,0.15572375059127808,-0.7888050675392151,8
3.4853591918945312,2.6039936542510986,-3.581127166748047,2.2061641216278076,0.04547213390469551,-0.9954602718353271,8
3.013402223587036,1.389235496520996,-5.301061630249023,2.270610809326172,-0.033887725323438644,-1.2196917533874512,8
2.2254104614257812,0.08619125932455063,-7.085939407348633,2.2248058319091797,-0.08608414232730865,-1.4524452686309814,8
0.9080010056495667,-0.6610989570617676,-8.810662269592285,2.0985755920410156,-0.09939955919981003,-1.60850191116333,8
-0.6395511031150818,-1.0899603366851807,-10.269330024719238,1.7869949340820312,-0.14786766469478607,-1.7805370092391968,8
-2.2230162620544434,-1.3198037147521973,-11.196484565734863,1.51962149143219,-0.2187056541442871,-1.8343312740325928,8
-3.538031578063965,-1.326986312866211,-11.764209747314453,1.0008530616760254,-0.40671929717063904,-1.8130265474319458,8
-3.8878843784332275,-1.367687702178955,-11.824064254760742,0.7750235795974731,-0.5696999430656433,-1.7885262966156006,8
-4.357447147369385,-1.9545663595199585,-11.584644317626953,0.3009283244609833,-0.8466604948043823,-1.7049055099487305,8
-4.288015365600586,-1.9306243658065796,-11.373655319213867,-0.14753477275371552,-0.9382705688476562,-1.6196868419647217,8
-3.3943793773651123,-2.1990742683410645,-10.616787910461426,-0.5528559684753418,-0.9739558696746826,-1.6026431322097778,8
-2.7667994499206543,-2.7835588455200195,-9.335291862487793,-0.8282186985015869,-1.009641170501709,-1.634067416191101,8
-2.493561029434204,-2.8266544342041016,-8.103774070739746,-0.8282186985015869,-1.009641170501709,-1.634067416191101,8
-2.493561029434204,-2.9152398109436035,-6.889315605163574,-0.9453943371772766,-1.0309457778930664,-1.6532416343688965,8
-2.5031378269195557,-2.8482022285461426,-5.751471042633057,-1.519554853439331,-1.1667630672454834,-1.6729484796524048,8
-2.2876596450805664,-2.6949732303619385,-4.606443881988525,-1.6367305517196655,-1.224818229675293,-1.6377958059310913,8
-1.877951979637146,-2.6973674297332764,-3.4374752044677734,-1.7272753715515137,-1.2194920778274536,-1.5813384056091309,8
-1.3724761009216309,-2.6303298473358154,-2.254140853881836,-1.7879936695098877,-1.1364039182662964,-1.5152939558029175,8
-0.7616553902626038,-2.3738510608673096,-0.9702502489089966,-1.8108961582183838,-1.0421308279037476,-1.4630975723266602,8
0.07661445438861847,-2.0027496814727783,0.3067570924758911,-1.8114287853240967,-0.894063413143158,-1.4215534925460815,8
1.2623428106307983,-1.7917606830596924,1.6935983896255493,-1.786928415298462,-0.8264210820198059,-1.409835934638977,8
2.2804770469665527,-1.7821838855743408,2.886509418487549,-1.8721470832824707,-1.0378698110580444,-1.3128997087478638,8
1.822885274887085,-0.11971008777618408,4.2760443687438965,-2.1821963787078857,-1.2093724012374878,-0.935274600982666,8
-0.26575639843940735,4.184765338897705,7.31578254699707,-2.6141483783721924,-1.241329312324524,-0.17789392173290253,8
-0.016759412363171577,8.920795440673828,13.474567413330078,-3.2958974838256836,-1.0836749076843262,1.6357319355010986,8
6.467936038970947,12.207435607910156,20.91245460510254,-3.6101412773132324,-0.5079164505004883,3.001959800720215,8
18.124107360839844,12.717700004577637,27.729944229125977,-3.6197283267974854,0.27882474660873413,3.538304567337036,8
30.058603286743164,12.339117050170898,34.88531494140625,-3.09723162651062,0.800788938999176,3.0738630294799805,8
36.425682067871094,12.303203582763672,38.878543853759766,-2.1268043518066406,1.0495208501815796,2.1001734733581543,8
35.12024688720703,13.61103630065918,39.000648498535156,-1.2287462949752808,1.0729559659957886,1.4035110473632812,8
29.155391693115234,15.589844703674316,33.91506576538086,-0.2972000241279602,1.0026506185531616,0.9007210731506348,8
23.032520294189453,17.125425338745117,27.083209991455078,-0.06551183015108109,1.0351401567459106,0.8996558785438538,8
18.70140838623047,18.071434020996094,21.496938705444336,-0.15499140322208405,1.1890664100646973,1.1180286407470703,8
17.127819061279297,17.796100616455078,17.429489135742188,-0.3722989559173584,1.390928030014038,1.3119010925292969,8
17.355268478393555,16.332345962524414,14.729727745056152,-0.5187684893608093,1.606637716293335,1.2676938772201538,8
17.216405868530273,14.849437713623047,12.839804649353027,-0.49586597084999084,1.7259438037872314,0.9997877478599548,8
15.932214736938477,13.66610336303711,10.853814125061035,-0.32542869448661804,1.6716169118881226,0.629619300365448,8
13.903428077697754,12.444461822509766,8.570942878723145,-0.09214265644550323,1.4867990016937256,0.26897132396698,8
11.71153736114502,11.258733749389648,6.204274654388428,0.0964035913348198,1.3206226825714111,0.012782796286046505,8
9.65611457824707,10.094552993774414,3.921403169631958,0.31424373388290405,1.1778813600540161,-0.24234052002429962,8
8.115745544433594,8.89445972442627,2.4193408489227295,0.5806185603141785,1.0122376680374146,-0.4703003764152527,8
6.525396823883057,7.589020729064941,0.5030816197395325,0.7308164238929749,0.9179645776748657,-0.590671718120575,8
5.226841449737549,6.455665588378906,-0.9295487999916077,0.7308164238929749,0.9179645776748657,-0.590671718120575,8
3.8687307834625244,5.035305500030518,-2.165555477142334,1.4162938594818115,0.5190348029136658,-1.1137011051177979,8
2.2397756576538086,4.03153657913208,-3.4997243881225586,1.5723505020141602,0.3794892728328705,-1.2058438062667847,8
0.8262988328933716,2.857779026031494,-4.496310710906982,1.5723505020141602,0.3794892728328705,-1.2058438062667847,8
-0.6371569037437439,1.798943281173706,-5.174169063568115,2.0767383575439453,-0.36251211166381836,-1.4279448986053467,8
-1.758241891860962,0.9391255974769592,-5.686827659606934,2.1821963787078857,-0.5675694942474365,-1.4316731691360474,8
-2.5369560718536377,-0.009576806798577309,-5.8209028244018555,2.30842661857605,-0.7949967384338379,-1.4162273406982422,8
-3.315370798110962,-0.7281365990638733,-5.665279865264893,2.3947103023529053,-0.9121723771095276,-1.4013140201568604,8
-4.105756759643555,-1.204882025718689,-5.279513835906982,2.5385167598724365,-1.084207534790039,-1.3688244819641113,8
-4.764461517333984,-1.7438766956329346,-5.265148639678955,2.692509651184082,-1.3270806074142456,-1.295323371887207,8
-5.286696434020996,-2.278082847595215,-5.780201435089111,2.7265970706939697,-1.4852677583694458,-1.2090394496917725,8
-5.591059684753418,-2.795529842376709,-6.570886611938477,2.6642143726348877,-1.582203984260559,-1.1190272569656372,8
-5.80414342880249,-3.1501708030700684,-7.299023151397705,2.4538309574127197,-1.6445200443267822,-0.9816122055053711,8
-5.887940406799316,-3.119046211242676,-7.70394229888916,2.4538309574127197,-1.6445200443267822,-0.9816122055053711,8
-5.741894245147705,-2.970306396484375,-7.842806339263916,1.5979161262512207,-1.4618326425552368,-0.5858781337738037,8
-5.2124762535095215,-2.8003182411193848,-7.526472091674805,1.0940608978271484,-1.2115027904510498,-0.38934266567230225,8
-4.290409564971924,-2.637512445449829,-6.779181957244873,0.58274906873703,-0.8780848979949951,-0.2135792225599289,8
-3.1956608295440674,-2.3953988552093506,-5.8209028244018555,0.18428531289100647,-0.5696999430656433,-0.11291470378637314,8
-1.9955670833587646,-2.117671489715576,-4.685452938079834,-0.2865476906299591,-0.2314884513616562,-0.03408745676279068,8
-0.4504092037677765,-1.7079635858535767,-3.377619981765747,-0.7158365845680237,0.043874286115169525,-0.034620072692632675,8
1.4972739219665527,-1.2168530225753784,-1.9330185651779175,-1.1030488014221191,0.26710718870162964,-0.14061075448989868,8
3.511695384979248,-0.7879916429519653,-0.36421793699264526,-1.520087480545044,0.5062519907951355,-0.3930709958076477,8
5.476137638092041,-0.4743511974811554,1.2934675216674805,-2.527331829071045,1.2870677709579468,-0.9384703040122986,8
6.683413982391357,-0.19871874153614044,2.879326820373535,-2.6136157512664795,1.360568881034851,-0.9091764092445374,8
5.991190433502197,0.8792705535888672,4.304774761199951,-2.6136157512664795,1.360568881034851,-0.9091764092445374,8
3.6314053535461426,3.423109769821167,6.628347396850586,-3.430116891860962,1.368025541305542,0.7984587550163269,8
1.8875287771224976,6.965929985046387,10.990582466125488,-3.430116891860962,1.368025541305542,0.7984587550163269,8
2.9104514122009277,10.307637214660645,16.502334594726562,-3.457813024520874,1.2146319150924683,1.2000515460968018,8
6.9707183837890625,12.925995826721191,21.300613403320312,-3.3997578620910645,0.7693645358085632,2.03572678565979,8
13.194146156311035,15.232809066772461,25.126249313354492,-3.266071081161499,0.39493513107299805,2.5012338161468506,8
20.658668518066406,16.5864315032959,29.401994705200195,-2.9832515716552734,0.1839524209499359,2.500168561935425,8
27.313352584838867,17.113155364990234,32.75327682495117,-2.3931126594543457,0.16903916001319885,1.8823332786560059,8
29.97690200805664,17.43667221069336,33.09355545043945,-1.9200825691223145,0.43701183795928955,1.1819425821304321,8
28.860605239868164,18.620006561279297,30.293235778808594,-1.6990467309951782,0.8231588006019592,0.5214981436729431,8
25.260324478149414,19.683629989624023,26.120441436767578,-1.7906566858291626,1.0985215902328491,0.0319569893181324,8
21.262306213378906,19.350536346435547,22.565351486206055,-1.9851282835006714,1.2290126085281372,-0.2130466103553772,8
17.944541931152344,18.016366958618164,20.055030822753906,-2.2359907627105713,1.4303416013717651,-0.3845491111278534,8
15.49647045135498,16.06898307800293,18.131288528442383,-2.362753391265869,1.7030413150787354,-0.5352795720100403,8
13.15344524383545,14.104541778564453,16.399383544921875,-2.3015024662017822,1.9389903545379639,-0.7158365845680237,8
10.588057518005371,12.418126106262207,14.56692123413086,-1.9904544353485107,1.982664942741394,-0.9256874918937683,8
7.651269912719727,11.004947662353516,12.595296859741211,-1.5935885906219482,1.8180865049362183,-0.9880036115646362,8
4.94193172454834,9.730335235595703,10.729315757751465,-1.2159634828567505,1.5709524154663086,-0.9437964558601379,8
3.0469210147857666,8.585308074951172,9.435848236083984,-0.49320289492607117,1.1070433855056763,-0.760043740272522,8
2.1751322746276855,7.454646110534668,7.936180114746094,0.1810896098613739,0.6979939341545105,-0.5778889060020447,8
2.0889410972595215,6.283283233642578,5.559935092926025,0.6759569048881531,0.4966649115085602,-0.467637300491333,8
2.275688648223877,4.702212333679199,3.3033998012542725,1.350782036781311,0.23348575830459595,-0.4074516296386719,8
2.0410568714141846,3.4087445735931396,1.6409260034561157,1.7992451190948486,-0.02589847706258297,-0.41064733266830444,8
1.5690999031066895,2.256535053253174,0.12689268589019775,2.336122512817383,-0.44666552543640137,-0.45165881514549255,8
0.960673451423645,1.1665748357772827,-1.5499463081359863,2.791043758392334,-0.8285515904426575,-0.5230293869972229,8
0.3043628931045532,0.07661445438861847,-3.269881010055542,3.1867778301239014,-1.1481214761734009,-0.629020094871521,8
-0.5820902585983276,-0.8023568391799927,-4.946720123291016,3.3391060829162598,-1.299384593963623,-0.7035863995552063,8
-1.535581111907959,-1.3796586990356445,-6.333561420440674,3.347627878189087,-1.3915271759033203,-0.7360759973526001,8
-2.369062662124634,-1.8683751821517944,-7.306205749511719,3.2325828075408936,-1.4660935401916504,-0.7414022088050842,8
-3.1453824043273926,-2.2852654457092285,-7.689577102661133,3.03018856048584,-1.462897777557373,-0.6950645446777344,8
