AccX,AccY,AccZ,GyroX,GyroY,GyroZ,Label
3.7729625701904297,-0.8433575630187988,4.870105743408203,-0.042076703161001205,-0.686276376247406,1.0569775104522705,14
3.8471827507019043,-1.0444705486297607,4.1320929527282715,0.025032976642251015,-1.6983143091201782,1.4894620180130005,14
4.666299343109131,-1.245583415031433,4.256890773773193,0.025032976642251015,-1.6983143091201782,1.4894620180130005,14
6.031891822814941,-1.7271173000335693,4.654327869415283,0.025032976642251015,-1.6983143091201782,1.4894620180130005,14
7.081151008605957,-2.1128830909729004,4.541800498962402,0.1166430190205574,-1.8176203966140747,1.4740161895751953,14
7.339724540710449,-2.2469582557678223,3.9597103595733643,0.20026381313800812,-1.9124261140823364,1.4729509353637695,14
7.495347499847412,-2.5103204250335693,3.063680410385132,0.23861220479011536,-1.9806010723114014,1.49851655960083,14
7.45225191116333,-2.90805721282959,2.103306293487549,0.2343512624502182,-2.0370583534240723,1.5613652467727661,14
7.4426751136779785,-3.4159271717071533,1.1665748357772827,0.21570968627929688,-2.1403861045837402,1.636996865272522,14
7.488164901733398,-3.9525277614593506,0.26096799969673157,0.19706811010837555,-2.3268017768859863,1.7110306024551392,14
7.632116317749023,-4.730942726135254,-0.39534255862236023,0.23222079873085022,-2.571805477142334,1.754172444343567,14
7.763797760009766,-5.7323174476623535,-0.8672995567321777,0.3206351399421692,-2.959017515182495,1.7573682069778442,14
7.507318496704102,-6.688202381134033,-1.437418818473816,0.4143756330013275,-3.3925673961639404,1.750976800918579,14
6.980295181274414,-7.646481513977051,-2.1320366859436035,0.4143756330013275,-3.3925673961639404,1.750976800918579,14
6.06780481338501,-8.884882926940918,-2.723703622817993,0.6572487950325012,-4.730566501617432,1.9570993185043335,14
5.296273231506348,-10.406098365783691,-3.1046810150146484,0.7275541424751282,-5.253063678741455,2.2963759899139404,14
5.200505256652832,-12.027571678161621,-3.1860837936401367,0.7850767374038696,-5.55186128616333,2.7773287296295166,14
5.828085422515869,-13.776535987854004,-2.922422409057617,0.8937305212020874,-5.5731658935546875,3.301490068435669,14
7.10030460357666,-15.37885570526123,-2.491166830062866,1.0162322521209717,-5.5646443367004395,3.7153329849243164,14
8.669105529785156,-16.952743530273438,-2.431311845779419,1.1019835472106934,-5.588612079620361,4.022652626037598,14
10.741286277770996,-18.57451629638672,-2.821866035461426,1.1323426961898804,-5.6013946533203125,4.125980377197266,14
13.589488983154297,-20.00714683532715,-3.2411506175994873,1.1083749532699585,-5.6530585289001465,5.238616466522217,14
17.61863136291504,-21.16175079345703,-3.3033998012542725,0.8106423020362854,-5.263715744018555,5.635482311248779,14
22.143672943115234,-21.228788375854492,-3.080439805984497,0.3952014446258545,-4.669848442077637,5.778223514556885,14
27.3444766998291,-20.174739837646484,-2.680608034133911,-0.06817491352558136,-4.065328598022461,5.785147190093994,14
32.925960540771484,-18.361433029174805,-1.7965490818023682,-0.9481239914894104,-2.847168207168579,5.616840362548828,14
38.3060302734375,-16.215030670166016,-0.900818407535553,-1.87221360206604,-1.708433985710144,5.287084579467773,14
42.39772033691406,-13.237541198730469,0.39294835925102234,-2.898632287979126,-0.5030562877655029,4.7954792976379395,14
44.809879302978516,-9.895833969116211,3.1693243980407715,-2.898632287979126,-0.5030562877655029,4.7954792976379395,14
45.18098068237305,-6.925228595733643,7.711124897003174,-2.898632287979126,-0.5030562877655029,4.7954792976379395,14
43.30781555175781,-5.178957462310791,13.136685371398926,-4.1071391105651855,1.3425264358520508,2.0945143699645996,14
39.297828674316406,-4.577713489532471,17.714698791503906,-4.1071391105651855,1.3425264358520508,2.0945143699645996,14
33.79774856567383,-3.3680431842803955,20.052637100219727,-3.2885074615478516,1.2045122385025024,1.6843997240066528,14
27.780221939086914,-0.5366004705429077,20.289661407470703,-3.2885074615478516,1.2045122385025024,1.6843997240066528,14
23.03012466430664,2.4361002445220947,18.742109298706055,-3.2885074615478516,1.2045122385025024,1.6843997240066528,14
20.570083618164062,4.467580318450928,15.419556617736816,-3.2885074615478516,1.2045122385025024,1.6843997240066528,14
19.214067459106445,5.89512300491333,11.275492668151855,-0.29620134830474854,-1.1790132522583008,1.3887975215911865,14
18.155231475830078,7.164947986602783,7.7183074951171875,-0.32602787017822266,-1.379276990890503,1.0575101375579834,14
16.267702102661133,8.523058891296387,4.558559894561768,-0.5928687453269958,-1.3366676568984985,0.6308176517486572,14
13.503297805786133,9.97484302520752,2.1511902809143066,-0.752121090888977,-1.2530468702316284,0.45452162623405457,14
10.207080841064453,11.007342338562012,0.38576576113700867,-0.752121090888977,-1.2530468702316284,0.45452162623405457,14
6.7025675773620605,11.99644660949707,-0.4743511974811554,-2.0660860538482666,-0.48920828104019165,-0.4967314600944519,14
3.2148144245147705,13.474567413330078,-0.27054479718208313,-2.7463037967681885,-0.08282186836004257,-0.9483903050422668,14
-0.2753331959247589,15.07718563079834,0.6658873558044434,-2.7463037967681885,-0.08282186836004257,-0.9483903050422668,14
-2.8960862159729004,16.442480087280273,1.7869722843170166,-2.767076015472412,-0.030092833563685417,-1.0357394218444824,14
-4.611232280731201,17.31456756591797,2.687790632247925,-2.6296608448028564,-0.1009308323264122,-1.3366676568984985,14
-8.09659194946289,19.448997497558594,3.8639423847198486,-2.3244049549102783,-0.25752007961273193,-1.6552389860153198,14
-11.071986198425293,21.736658096313477,5.274725437164307,-1.9047032594680786,-0.8380720615386963,-1.9045034646987915,14
-13.242329597473145,21.231182098388672,5.926547050476074,-1.4578379392623901,-1.4921917915344238,-2.097310781478882,14
-14.145242691040039,19.829675674438477,6.494272232055664,-1.0093748569488525,-1.9710140228271484,-2.218214511871338,14
-14.904803276062012,18.89563751220703,8.472780227661133,-0.49806302785873413,-2.323073387145996,-2.1452462673187256,14
-14.126089096069336,17.580324172973633,11.244368553161621,0.13315412402153015,-2.515347957611084,-1.9412540197372437,14
-11.510124206542969,16.116867065429688,14.533402442932129,0.9682968258857727,-2.5174784660339355,-1.585998773574829,14
-6.750451564788818,14.727333068847656,17.640178680419922,1.927006483078003,-2.393911600112915,-1.0389350652694702,14
1.6241666078567505,13.560758590698242,19.879955291748047,2.7627484798431396,-2.1164183616638184,-0.6517229080200195,14
13.723564147949219,13.297396659851074,19.796157836914062,3.7086753845214844,-1.5433229207992554,-0.5372103452682495,14
27.658117294311523,13.78132438659668,16.682199478149414,4.283901214599609,-0.41623979806900024,-2.184659719467163,14
41.37958526611328,14.420875549316406,13.33809757232666,4.240759372711182,-0.3464670479297638,-2.451500654220581,14
50.45121765136719,14.516643524169922,11.32577133178711,3.921721935272217,-0.12702903151512146,-3.4650697708129883,14
58.79949951171875,10.602422714233398,13.958495140075684,5.0429463386535645,2.598436117172241,-5.05765962600708,14
69.83048248291016,0.44083237648010254,19.626169204711914,5.0429463386535645,2.598436117172241,-5.05765962600708,14
78.32481384277344,-9.292196273803711,23.511659622192383,5.0429463386535645,2.598436117172241,-5.05765962600708,14
78.49270629882812,-18.239028930664062,21.511302947998047,7.130869388580322,1.907099962234497,-5.716506481170654,14
78.49270629882812,-26.13001823425293,13.512874603271484,8.233918190002441,0.025299284607172012,-6.495258331298828,14
71.02608489990234,-32.73173141479492,4.045901775360107,8.318604469299316,-1.240796685218811,-7.069418907165527,14
58.353878021240234,-36.118927001953125,-3.559579372406006,7.201174736022949,-2.029069185256958,-7.68405818939209,14
45.226768493652344,-36.004005432128906,-7.354089736938477,5.741739273071289,-1.4671587944030762,-7.570611000061035,14
35.41473388671875,-35.287837982177734,-5.880757808685303,4.300944805145264,-0.5818835496902466,-7.0406575202941895,14
28.086978912353516,-33.524810791015625,-1.3006501197814941,3.4317147731781006,0.1968017965555191,-6.306179523468018,14
22.941539764404297,-31.613039016723633,1.7893664836883545,2.9885778427124023,0.8055824637413025,-5.608917713165283,14
20.13164520263672,-31.569944381713867,3.296217203140259,2.789379358291626,1.1187609434127808,-5.192944526672363,14
16.744447708129883,-30.896873474121094,3.315370798110962,2.7030954360961914,1.162435531616211,-5.074703693389893,14
12.274473190307617,-29.294254302978516,3.4159271717071533,2.779792070388794,1.0623036623001099,-5.077366828918457,14
7.380425930023193,-27.837982177734375,3.6652235984802246,3.023730516433716,0.6111774444580078,-5.1167802810668945,14
2.2876596450805664,-26.18508529663086,2.3331496715545654,3.243168592453003,-0.3065207898616791,-5.162585258483887,14
-1.1139023303985596,-25.528474807739258,-0.5413888692855835,3.0386438369750977,-1.1092404127120972,-5.174835681915283,14
-6.676231384277344,-25.018510818481445,-3.2555158138275146,2.414417266845703,-1.6051064729690552,-4.95060396194458,14
-9.68005657196045,-25.392005920410156,-5.238812446594238,1.449782133102417,-1.7126950025558472,-4.649142742156982,14
-12.686575889587402,-26.417322158813477,-5.5096564292907715,0.37869033217430115,-1.3265479803085327,-4.238495826721191,14
-16.270097732543945,-28.18514060974121,-4.105756759643555,-0.34626731276512146,-0.7629731297492981,-3.8129351139068604,14
-20.819080352783203,-29.36847496032715,-1.988384485244751,-0.928949773311615,-0.06790860742330551,-3.1178038120269775,14
-26.161142349243164,-29.775789260864258,-0.05985504388809204,-1.1457246541976929,0.1872147023677826,-2.1021041870117188,14
-31.24433135986328,-29.720722198486328,1.3341689109802246,-1.0093748569488525,-0.2085193693637848,-0.2623802125453949,14
-34.33674240112305,-29.71832847595215,2.5103204250335693,-0.6557174921035767,-0.8455287218093872,1.7754771709442139,14
-32.89962387084961,-30.135217666625977,3.401561975479126,-0.1923411339521408,-1.4053752422332764,3.9576735496520996,14
-26.42211151123047,-31.225177764892578,3.356072187423706,0.2125139832496643,-1.5646275281906128,5.799528121948242,14
-17.242740631103516,-32.628780364990234,2.493561029434204,0.47349607944488525,-1.3121674060821533,6.955838680267334,14
-7.976881504058838,-34.085350036621094,0.6443395614624023,0.5129097104072571,-0.9930635094642639,7.398975372314453,14
-0.4887164235115051,-34.91404342651367,-1.7438766956329346,0.3499290347099304,-0.532882809638977,7.555564880371094,14
6.312013626098633,-35.156158447265625,-4.213795185089111,0.0005326165119186044,-0.17816022038459778,7.424008369445801,14
10.942399978637695,-34.21224594116211,-5.823297023773193,-0.4176379144191742,0.03595161437988281,7.275940895080566,14
15.762227058410645,-32.841861724853516,-6.774393558502197,-0.829350471496582,0.132355198264122,7.198711395263672,14
21.092317581176758,-32.71257781982422,-7.433098316192627,-1.2021820545196533,0.010386021807789803,7.32387638092041,14
26.683378219604492,-35.29262924194336,-8.298004150390625,-1.7944515943527222,-0.2383458912372589,8.139911651611328,14
32.97623825073242,-36.284427642822266,-8.355464935302734,-2.4459080696105957,-0.14194230735301971,9.51406192779541,14
43.02769470214844,-34.430118560791016,-5.8855462074279785,-3.0967655181884766,0.36244553327560425,10.966041564941406,14
57.25194549560547,-29.952959060668945,-2.5103204250335693,-3.623523235321045,1.4277451038360596,11.64086627960205,14
73.5986557006836,-24.33795738220215,0.7065888047218323,-3.96066951751709,2.250105142593384,11.158315658569336,14
78.49270629882812,-17.91820526123047,4.100968360900879,-4.119921684265137,3.14170503616333,8.39982795715332,14
78.49270629882812,-10.333972930908203,7.92899751663208,-3.7369706630706787,3.5960934162139893,5.025569438934326,14
75.3688735961914,-2.596811056137085,12.784737586975098,-2.9897096157073975,3.4106764793395996,2.6234025955200195,14
55.69242477416992,2.3068132400512695,16.60079574584961,-1.5792745351791382,2.3411824703216553,0.624958872795105,14
36.17878341674805,5.528810501098633,17.479766845703125,0.0106523297727108,0.8306154608726501,-0.1547916680574417,14
21.727081298828125,7.4642229080200195,14.068628311157227,1.5238158702850342,-0.5334154367446899,0.13015815615653992,14
14.636353492736816,7.689577102661133,7.251139163970947,1.9973119497299194,-0.9659000635147095,0.7336126565933228,14
12.322357177734375,8.12053394317627,1.0564415454864502,1.8859950304031372,-0.8987903594970703,1.1661638021469116,14
12.310386657714844,9.229647636413574,-3.3632547855377197,1.30491042137146,-0.4657731354236603,1.499049186706543,14
12.463615417480469,10.698190689086914,-5.77062463760376,0.4591154456138611,0.2181064635515213,1.575745940208435,14
11.364078521728516,12.29362678527832,-6.395810604095459,-0.6200321912765503,1.0841408967971802,1.4782770872116089,14
9.759065628051758,14.224251747131348,-5.607819080352783,-1.3912608623504639,1.4192233085632324,1.2987853288650513,14
8.223783493041992,16.23418426513672,-3.9549219608306885,-1.9308013916015625,1.393125057220459,1.0228899717330933,14
6.719326972961426,18.116924285888672,-1.3796586990356445,-2.139587163925171,1.169359564781189,0.6819488406181335,14
5.366004467010498,19.745880126953125,1.1426327228546143,-2.039987802505493,0.8535179495811462,0.3442699909210205,14
4.443638324737549,21.04652976989746,2.8338370323181152,-1.7907233238220215,0.6585803031921387,0.04866783320903778,14
3.85197114944458,22.476764678955078,3.7777509689331055,-1.2708895206451416,0.440740168094635,-0.4780898988246918,14
3.2794578075408936,23.482929229736328,3.7801451683044434,-1.090865135192871,0.38108712434768677,-0.6767558455467224,14
2.639906644821167,23.67925262451172,2.8673558235168457,-1.090865135192871,0.38108712434768677,-0.6767558455467224,14
1.877951979637146,22.812253952026367,1.8444331884384155,-1.090865135192871,0.38108712434768677,-0.6767558455467224,14
1.3341689109802246,21.374834060668945,1.8324620723724365,-0.4479970633983612,-0.05299534276127815,-2.3748037815093994,14
1.3772644996643066,19.559131622314453,2.7404630184173584,-0.4511927664279938,0.04607132822275162,-2.6634819507598877,14
2.4408886432647705,17.884687423706055,4.831798076629639,-0.25252678990364075,0.32889068126678467,-2.8994312286376953,14
4.443638324737549,16.238971710205078,7.387608528137207,0.20931829512119293,0.556317925453186,-3.0847816467285156,14
6.879738807678223,14.487913131713867,8.927978515625,0.8649691939353943,0.6702978610992432,-3.3052849769592285,14
9.684844970703125,12.928389549255371,9.545981407165527,1.4551082849502563,0.5776225924491882,-3.518864154815674,14
12.890082359313965,11.313799858093262,9.608230590820312,2.209359884262085,0.2607157826423645,-3.8688597679138184,14
16.38262367248535,9.416694641113281,8.9064302444458,2.999230146408081,-0.22076953947544098,-4.405737400054932,14
19.398719787597656,7.725490570068359,7.3109941482543945,3.340637445449829,-0.4929365813732147,-4.799873352050781,14
21.76778221130371,6.424540996551514,5.504868030548096,3.462606430053711,-0.7347444891929626,-5.436882972717285,14
25.025691986083984,5.768230438232422,4.661510944366455,3.406681776046753,-0.7294183373451233,-5.527427673339844,14
30.324359893798828,5.143044471740723,5.253177642822266,3.228787899017334,-0.6154384016990662,-5.607852458953857,14
38.48589324951172,3.2148144245147705,6.712144374847412,3.0258610248565674,-0.5094476938247681,-5.671766757965088,14
46.34067153930664,0.4528034031391144,10.595240592956543,3.136112689971924,-0.5280892848968506,-5.469372272491455,14
56.4615592956543,-4.580107688903809,15.537172317504883,4.700473785400391,-0.8993229866027832,-4.842482566833496,14
68.72855377197266,-13.690045356750488,17.458219528198242,4.968912601470947,-1.001052737236023,-4.919179439544678,14
74.88733673095703,-22.395362854003906,12.207435607910156,6.06716775894165,-1.9065673351287842,-5.84486722946167,14
66.49595642089844,-23.775020599365234,3.8735191822052,6.207245826721191,-3.183781862258911,-6.815361022949219,14
54.18587112426758,-23.79896354675293,-3.487753391265869,5.188883304595947,-3.985436201095581,-7.229203701019287,14
42.65629577636719,-24.28528594970703,-7.351695537567139,3.345430850982666,-3.722856283187866,-7.234529972076416,14
32.74609375,-23.612215042114258,-7.794922351837158,1.281475305557251,-2.150505781173706,-6.849448204040527,14
25.47101402282715,-21.885099411010742,-4.9706621170043945,-0.7569146156311035,0.5137086510658264,-6.124024868011475,14
20.01911735534668,-20.423738479614258,-0.2777273952960968,-1.6389275789260864,2.529728651046753,-5.543406009674072,14
16.080955505371094,-20.002357482910156,4.771644115447998,-1.694319725036621,3.78890061378479,-5.078964710235596,14
12.25771427154541,-19.851224899291992,8.80587387084961,-1.0258859395980835,4.119655609130859,-4.688556671142578,14
8.171111106872559,-19.1063289642334,10.810718536376953,0.8063814043998718,3.0138771533966064,-3.916795253753662,14
3.9525277614593506,-17.92778205871582,10.640729904174805,1.5381964445114136,2.3214757442474365,-3.5918326377868652,14
0.8960300087928772,-17.185279846191406,9.038111686706543,2.7584874629974365,0.7805495262145996,-3.0672054290771484,14
-2.3930046558380127,-16.593612670898438,6.307225227355957,3.190439462661743,0.1227681040763855,-2.840843439102173,14
-4.235342979431152,-15.972916603088379,2.90805721282959,3.5590100288391113,-0.6511237025260925,-2.54577374458313,14
-5.7107696533203125,-16.42332649230957,-0.34027591347694397,3.5398359298706055,-0.9408670663833618,-2.3785321712493896,14
-6.070199012756348,-18.536209106445312,-3.784933567047119,3.116405725479126,-0.9515193700790405,-2.2986397743225098,14
-7.198466777801514,-20.773590087890625,-6.884527206420898,2.1251399517059326,-0.49932798743247986,-2.399836778640747,14
-10.163984298706055,-22.11733627319336,-9.097966194152832,1.0407326221466064,0.10199606418609619,-2.4174132347106934,14
-14.20988655090332,-22.802677154541016,-9.806949615478516,-0.0740336924791336,0.6958634853363037,-2.203301429748535,14
-18.569726943969727,-23.37040138244629,-9.129091262817383,-1.657036542892456,0.9360735416412354,-0.840269148349762,14
-22.89844512939453,-23.92615509033203,-8.077438354492188,-1.794984221458435,0.8828118443489075,-0.5931350588798523,14
-26.232969284057617,-24.02671241760254,-6.460753440856934,-2.3334596157073975,0.4971975088119507,0.90145343542099,14
-26.78872299194336,-23.72953224182129,-3.7585973739624023,-2.5593554973602295,0.10732222348451614,2.3235394954681396,14
-22.95590591430664,-23.760656356811523,-0.8433575630187988,-2.58492112159729,0.015179570764303207,2.686784029006958,14
-15.704766273498535,-24.45796775817871,1.061229944229126,-2.2823283672332764,-0.6196992993354797,5.675961017608643,14
-6.712144374847412,-25.222017288208008,1.6935983896255493,-1.9931175708770752,-0.7848104238510132,6.332144737243652,14
2.3738510608673096,-25.701156616210938,1.559523105621338,-1.5861985683441162,-1.0724233388900757,6.691128253936768,14
11.03128433227539,-25.485380172729492,0.5605424642562866,-1.1936601400375366,-1.4671587944030762,6.603778839111328,14
19.25716209411621,-23.952491760253906,-1.4182652235031128,-1.1244200468063354,-1.547583818435669,6.537201881408691,14
26.702531814575195,-21.39159393310547,-3.8902785778045654,-0.8874056935310364,-1.8383924961090088,5.348335266113281,14
31.328128814697266,-19.793764114379883,-6.602011203765869,-1.3268142938613892,-1.6210849285125732,4.9589924812316895,14
33.93421936035156,-20.582054138183594,-8.654740333557129,-2.409623622894287,-1.0159659385681152,5.989139556884766,14
38.01633071899414,-18.65591812133789,-7.334936141967773,-3.0594823360443115,-0.4535229504108429,6.848249912261963,14
46.481929779052734,-10.638336181640625,-2.723703622817993,-4.093291282653809,0.5680354833602905,8.144704818725586,14
61.69319152832031,-2.4025814533233643,1.51163911819458,-5.183091163635254,1.5422576665878296,8.061616897583008,14
73.16021728515625,1.901893973350525,5.547964096069336,-5.645934581756592,2.2692792415618896,6.941457748413086,14
74.6598892211914,2.1775264739990234,9.35205078125,-5.82382869720459,3.1353137493133545,4.8886871337890625,14
63.83959197998047,5.114314079284668,15.46055793762207,-5.103198528289795,3.2940332889556885,2.7080886363983154,14
48.288055419921875,9.411906242370605,20.275297164916992,-3.8083412647247314,2.514815330505371,1.660431981086731,14
33.953372955322266,11.687594413757324,21.39159393310547,-2.2588932514190674,1.2423945665359497,1.283872127532959,14
24.0314998626709,11.697171211242676,18.620006561279297,-0.8858078122138977,0.03488638252019882,1.2897309064865112,14
17.637784957885742,11.148600578308105,12.521076202392578,-0.0750989317893982,-0.6111774444580078,1.4399287700653076,14
13.7573823928833,10.705373764038086,6.391022205352783,0.12356702983379364,-0.716635525226593,1.5837352275848389,14
11.277887344360352,10.39412784576416,1.6888099908828735,-0.13694901764392853,-0.5691007375717163,1.6732147932052612,14
8.796297073364258,10.140042304992676,-1.533186912536621,-0.5625095963478088,-0.3885437548160553,1.7200850248336792,14
6.3622918128967285,9.936535835266113,-3.248333215713501,-1.0929956436157227,-0.2170412242412567,1.768020510673523,14
3.5428199768066406,10.362703323364258,-3.4542346000671387,-2.041053056716919,0.06577813625335693,1.8404563665390015,14
2.1296424865722656,11.625345230102539,-1.8947113752365112,-2.4522995948791504,0.06737598776817322,1.8899897336959839,14
1.679233193397522,12.650662422180176,0.13168109953403473,-2.7558910846710205,0.031158065423369408,1.814358115196228,14
1.6265608072280884,13.8746976852417,1.9138649702072144,-2.8363161087036133,0.07163692265748978,1.5933222770690918,14
1.324592113494873,15.23520278930664,3.8232407569885254,-2.613682270050049,0.18455162644386292,1.1571093797683716,14
0.5820902585983276,16.631919860839844,5.972036838531494,-2.092716932296753,0.1557903289794922,0.6888728737831116,14
-0.8984242081642151,18.03791618347168,7.301417350769043,-1.5297411680221558,0.005592473316937685,0.28781265020370483,14
-2.474407434463501,19.283498764038086,7.23677396774292,-0.7862085700035095,-0.2505960762500763,-0.1760963350534439,14
-3.1860837936401367,19.805734634399414,6.374262809753418,-0.15505798161029816,-0.5824161767959595,-0.6469293236732483,14
-3.7370495796203613,19.671659469604492,4.860528945922852,0.22050324082374573,-0.8125064969062805,-1.086870551109314,14
-4.036324977874756,19.24519157409668,3.5476083755493164,0.2860150635242462,-0.7842777967453003,-1.5146281719207764,14
-3.9740755558013916,18.87887954711914,3.3871967792510986,0.16191542148590088,-0.4508598744869232,-1.74791419506073,14
-2.8889036178588867,18.34946060180664,4.707000732421875,0.07350108027458191,0.10039821267127991,-1.9151557683944702,14
-1.1019313335418701,17.753005981445312,6.304831027984619,0.13528458774089813,0.7475273013114929,-2.0568318367004395,14
1.8061258792877197,17.034147262573242,8.298004150390625,0.3509942889213562,1.1720225811004639,-2.189453363418579,14
6.153995990753174,16.317981719970703,10.108918190002441,0.3509942889213562,1.1720225811004639,-2.189453363418579,14
10.796353340148926,15.491682052612305,11.318588256835938,1.5099678039550781,1.3675594329833984,-2.8978333473205566,14
15.091550827026367,14.071022987365723,11.471817016601562,2.3568947315216064,1.0298140048980713,-3.587571620941162,14
18.155231475830078,13.342885971069336,11.191696166992188,2.981121301651001,0.7038527131080627,-4.154342174530029,14
20.713735580444336,12.799102783203125,11.608586311340332,3.5771191120147705,0.4220985770225525,-4.461129188537598,14
23.12828826904297,12.708123207092285,11.917438507080078,4.078843593597412,0.23515018820762634,-4.474977493286133,14
24.960750579833984,14.248193740844727,11.407174110412598,4.624842166900635,-0.29799893498420715,-3.8134677410125732,14
31.840787887573242,13.819631576538086,9.91738224029541,4.7665181159973145,-0.7161028981208801,-3.1454999446868896,14
45.576324462890625,10.310030937194824,8.14716911315918,4.836823463439941,-0.9680305123329163,-2.714080572128296,14
58.33232879638672,5.701192855834961,4.206313133239746,4.803268909454346,-1.0356727838516235,-2.9601495265960693,14
59.75508499145508,0.982221245765686,-0.9056068062782288,4.572113513946533,-1.2897974252700806,-3.2546863555908203,14
54.83979034423828,-3.947739362716675,-5.397129058837891,3.95314621925354,-2.0604934692382812,-3.0565531253814697,14
46.79796600341797,-8.63319206237793,-8.530241012573242,2.9038918018341064,-2.6485021114349365,-2.5281975269317627,14
40.94832992553711,-12.653057098388672,-10.981005668640137,1.418890357017517,-2.7225358486175537,-2.054701328277588,14
37.20888900756836,-15.723919868469238,-12.238560676574707,-0.7004572749137878,-1.6956512928009033,-2.0807995796203613,14
32.54977035522461,-17.609054565429688,-10.9400053024292,-2.2956438064575195,0.03595161437988281,-2.3423142433166504,14
26.879701614379883,-18.52902603149414,-6.898892402648926,-3.27199649810791,1.4517128467559814,-2.5239365100860596,14
21.952136993408203,-19.170970916748047,-1.8252794742584229,-3.960136890411377,3.258347988128662,-2.830723524093628,14
17.50370979309082,-19.501670837402344,4.160823345184326,-3.828580617904663,4.127645015716553,-3.1273910999298096,14
13.33809757232666,-19.036895751953125,10.19032096862793,-2.9566874504089355,4.418453216552734,-3.4549500942230225,14
8.108562469482422,-17.92538833618164,13.975255012512207,-1.412032961845398,4.048285007476807,-3.5992891788482666,14
3.0998926162719727,-16.84500503540039,14.547767639160156,-0.265309602022171,3.640300750732422,-3.5710606575012207,14
-2.8553848266601562,-15.429133415222168,12.997821807861328,0.13155627250671387,3.4612748622894287,-3.5486905574798584,14
-7.519289493560791,-14.796765327453613,9.634567260742188,4.519317626953125,0.9168993234634399,-2.5143494606018066,14
-9.91977596282959,-16.17672348022461,5.224447250366211,5.4962029457092285,0.05139749497175217,-1.9657543897628784,14
-10.949881553649902,-18.380586624145508,0.12689268589019775,6.16889762878418,-0.8119738698005676,-1.4266798496246338,14
-11.411962509155273,-19.60222625732422,-5.631761074066162,6.172093391418457,-1.2722210884094238,-1.0985881090164185,14
-12.07814884185791,-19.66447639465332,-11.03128433227539,5.251731872558594,-1.25517737865448,-0.8924655318260193,14
-12.756007194519043,-19.377172470092773,-14.866196632385254,4.1896281242370605,-0.9685631394386292,-0.8274863362312317,14
-13.630189895629883,-19.056049346923828,-16.399383544921875,2.630126953125,-0.3789566457271576,-0.7673006653785706,14
-14.74409294128418,-19.154212951660156,-15.647305488586426,0.7744244337081909,0.30705341696739197,-0.549993097782135,14
-16.136022567749023,-19.798551559448242,-13.96328353881836,-0.3180386424064636,0.5722964406013489,-0.2522605061531067,14
-17.587507247924805,-20.4931697845459,-11.618163108825684,-1.4328049421310425,0.7171681523323059,0.3565201759338379,14
-18.363826751708984,-21.089923858642578,-8.139687538146973,-2.1784682273864746,0.6804175972938538,1.2678935527801514,14
-17.534833908081055,-21.57355308532715,-4.098574161529541,-2.129467487335205,-0.3022598624229431,4.2383623123168945,14
-14.293683052062988,-21.858762741088867,-0.4504092037677765,-2.032531261444092,-0.38481542468070984,4.432234764099121,14
-8.851364135742188,-21.911434173583984,1.9521721601486206,-1.825343370437622,-0.5477960705757141,4.780566215515137,14
-1.7223289012908936,-21.913829803466797,2.575263261795044,-1.3635648488998413,-0.817300021648407,5.2817583084106445,14
6.6355299949646,-21.681591033935547,1.149815320968628,-0.8506551384925842,-1.1358712911605835,5.501196384429932,14
15.580267906188965,-21.885099411010742,-1.9907786846160889,-0.5965970754623413,-1.4644956588745117,5.387216091156006,14
23.933338165283203,-23.049278259277344,-6.163572788238525,-0.8112415075302124,-1.8245444297790527,5.278029918670654,14
29.36847496032715,-24.08417320251465,-9.062053680419922,-1.6628953218460083,-1.7004448175430298,5.782484531402588,14
34.149993896484375,-22.254104614257812,-7.344512939453125,-2.3377203941345215,-1.1800785064697266,6.568626403808594,14
41.034523010253906,-16.478391647338867,-1.6098014116287231,-3.005155563354492,0.03861469775438309,7.928995609283447,14
51.78538513183594,-10.889727592468262,3.696348190307617,-3.1755928993225098,0.8183652758598328,8.31301212310791,14
62.67780685424805,-7.471405506134033,6.089352607727051,-3.1755928993225098,0.8183652758598328,8.31301212310791,14
68.4939193725586,-5.521627902984619,8.199841499328613,-3.03924298286438,2.2405178546905518,6.383275508880615,14
67.00143432617188,-3.0756514072418213,10.403704643249512,-2.5407140254974365,2.346508502960205,4.497214317321777,14
56.70576858520508,2.122459888458252,12.140398025512695,-1.0104401111602783,1.500713586807251,2.0061001777648926,14
44.25651931762695,5.629366874694824,11.912650108337402,-1.0104401111602783,1.500713586807251,2.0061001777648926,14
32.83468246459961,6.817489147186279,9.258378028869629,-0.14600349962711334,0.7022548913955688,1.3099702596664429,14
23.516447067260742,7.018901348114014,5.0592474937438965,-0.047402869910001755,0.14087706804275513,1.4260807037353516,14
16.54303550720215,7.061997413635254,0.8984242081642151,-0.047402869910001755,0.14087706804275513,1.4260807037353516,14
12.264896392822266,7.085939407348633,-2.2038626670837402,-0.47409528493881226,0.17230144143104553,1.6950520277023315,14
10.214262962341309,7.011419773101807,-4.117727756500244,-1.2186931371688843,0.35232582688331604,1.9496427774429321,14
9.131484985351562,7.476193904876709,-3.990834951400757,-2.030933380126953,0.5781552195549011,2.148308753967285,14
8.5996732711792,7.878719329833984,-2.881721019744873,-2.875197172164917,0.9413996934890747,2.1839940547943115,14
7.864354133605957,8.669105529785156,-1.0301052331924438,-3.2879748344421387,1.1933273077011108,2.0945143699645996,14
6.065410614013672,10.355521202087402,1.1115081310272217,-3.5825119018554688,1.4623652696609497,1.926740288734436,14
4.225766181945801,12.176311492919922,3.2100260257720947,-3.6309800148010254,1.5859322547912598,1.7563029527664185,14
3.403956174850464,13.87230396270752,5.064035892486572,-3.3183341026306152,1.4458540678024292,1.4420591592788696,14
2.687790632247925,15.292664527893066,6.431723594665527,-2.716477394104004,1.1677616834640503,1.0468577146530151,14
1.1905168294906616,16.691776275634766,7.095516204833984,-1.8945834636688232,0.7741581201553345,0.6510571241378784,14
-0.9534908533096313,17.891868591308594,6.331167221069336,-1.0642343759536743,0.27829211950302124,0.32935672998428345,14
-2.515108823776245,18.440441131591797,4.264073371887207,-0.5278895497322083,-0.18082331120967865,0.0896793082356453,14
-3.5428199768066406,18.33509635925293,1.8085200786590576,-0.1183074414730072,-0.7113093733787537,-0.19686837494373322,14
-4.019565582275391,17.755399703979492,-0.4097077548503876,-0.09320788830518723,-1.085206151008606,-0.48128560185432434,14
-3.792116165161133,17.067665100097656,-1.367687702178955,-0.27542930841445923,-1.1049795150756836,-0.6314834356307983,14
-2.9822773933410645,16.337135314941406,-0.6802525520324707,-0.5571834444999695,-0.9035838842391968,-0.7497243285179138,14
-1.5834650993347168,15.409979820251465,1.2168530225753784,-0.714837908744812,-0.5147738456726074,-0.7625071406364441,14
0.5437830686569214,14.77761173248291,3.4566287994384766,-0.6317497491836548,-0.03861469775438309,-0.6724949479103088,14
4.4508209228515625,14.401721954345703,5.6221842765808105,-0.3862135410308838,0.1760297566652298,-0.6570490598678589,14
9.47415542602539,13.99440860748291,6.937199592590332,0.09320788830518723,0.3017272651195526,-0.87169349193573,14
14.89283275604248,13.239935874938965,6.719326972961426,0.5858781337738037,0.2697702646255493,-1.4314734935760498,14
19.266738891601562,11.699565887451172,6.000767230987549,1.0615047216415405,0.16910573840141296,-2.4573593139648438,14
21.599889755249023,9.751882553100586,5.84963321685791,1.351780652999878,-0.03861469775438309,-3.2221968173980713,14
22.704214096069336,8.159140586853027,7.184101581573486,1.6223498582839966,-0.25698745250701904,-3.485309362411499,14
23.954885482788086,8.7268648147583,10.657489776611328,2.1352596282958984,-0.5861444473266602,-3.2381751537323,14
29.773393630981445,9.435848236083984,14.329895973205566,2.86820650100708,-1.0766842365264893,-2.737515687942505,14
41.95209884643555,6.57806921005249,15.25914478302002,3.901482582092285,-1.6375960111618042,-2.736450433731079,14
54.6790771484375,1.4757261276245117,13.110349655151367,4.4985456466674805,-1.8032398223876953,-3.2909042835235596,14
60.701393127441406,-2.951152801513672,9.742305755615234,5.0243048667907715,-1.9198827743530273,-4.266724109649658,14
63.139888763427734,-7.069180011749268,6.199486255645752,5.219775199890137,-2.6160125732421875,-5.388947486877441,14
59.59946060180664,-10.872967720031738,2.4408886432647705,4.996608734130859,-3.0607473850250244,-5.945531368255615,14
53.89108657836914,-14.111723899841309,-1.581070899963379,4.225313186645508,-3.2343802452087402,-6.3530497550964355,14
47.04247283935547,-15.654487609863281,-4.915595531463623,2.9773929119110107,-2.651165246963501,-6.62841272354126,14
39.45584487915039,-16.145599365234375,-6.503849029541016,1.5041090250015259,-1.3137651681900024,-6.843589782714844,14
31.847970962524414,-16.42332649230957,-5.540781497955322,-0.07722939550876617,0.7315487861633301,-6.766892910003662,14
25.265111923217773,-16.715717315673828,-2.2852654457092285,-0.8703619837760925,2.1952455043792725,-6.411105155944824,14
20.102914810180664,-16.643892288208008,1.9955670833587646,-1.0258859395980835,2.9520936012268066,-6.0264892578125,14
16.389806747436523,-16.279674530029297,5.859210014343262,-0.6743590831756592,3.2508914470672607,-5.507188320159912,14
13.345280647277832,-16.296432495117188,8.12292766571045,0.34513550996780396,2.932919502258301,-4.903201103210449,14
10.777199745178223,-16.60079574584961,8.9064302444458,1.203713297843933,2.4008355140686035,-4.54528284072876,14
8.410531044006348,-16.675016403198242,8.192659378051758,2.279132604598999,1.5678232908248901,-4.17990779876709,14
5.962460041046143,-16.65586280822754,6.2521586418151855,3.190972089767456,0.7720276117324829,-3.9151973724365234,14
4.3861775398254395,-17.08442497253418,3.140594005584717,3.7768502235412598,0.10359390825033188,-3.7691938877105713,14
0.2852092683315277,-16.689380645751953,0.309151291847229,4.0213212966918945,-0.23568280041217804,-3.565201759338379,14
-1.8516157865524292,-17.074848175048828,-2.8553848266601562,3.8892323970794678,-0.4615122079849243,-3.3095457553863525,14
-3.375225782394409,-18.198328018188477,-6.204274654388428,3.3523550033569336,-0.578687846660614,-3.1098146438598633,14
-4.558559894561768,-19.42026710510254,-9.244012832641602,2.217349052429199,-0.4604469835758209,-3.0485637187957764,14
-6.271312236785889,-20.466833114624023,-11.028889656066895,1.0204932689666748,-0.16218173503875732,-3.0810532569885254,14
-8.36264705657959,-21.715110778808594,-11.423933029174805,0.03941362351179123,0.1446053832769394,-3.134847640991211,14
-11.376049041748047,-23.243209838867188,-10.705373764038086,-2.566279411315918,0.8636376857757568,-2.2208776473999023,14
-15.884330749511719,-24.661474227905273,-9.644144058227539,-2.6845204830169678,0.8455287218093872,-2.0179507732391357,14
-20.967519760131836,-25.3632755279541,-7.92899751663208,-2.790511131286621,0.8151695728302002,-1.7985128164291382,14
