AccX,AccY,AccZ,GyroX,GyroY,GyroZ,Label
3.418321371078491,-0.32351651787757874,2.991854190826416,1.1595062017440796,-1.884197473526001,1.7030413150787354,14
3.969287157058716,-1.0013748407363892,1.5236101150512695,1.1595062017440796,-1.884197473526001,1.7030413150787354,14
4.779125690460205,-1.7055693864822388,0.6371569037437439,1.1152989864349365,-2.296442747116089,1.7722814083099365,14
5.217264652252197,-2.8673558235168457,-0.3737947344779968,1.0860050916671753,-2.5089566707611084,1.790922999382019,14
5.310638427734375,-4.194342136383057,-1.1737574338912964,1.0860050916671753,-2.5089566707611084,1.790922999382019,14
4.889259338378906,-5.193322658538818,-1.3365631103515625,0.874556303024292,-3.0287904739379883,1.9017072916030884,14
5.028122901916504,-6.520608425140381,-1.025316834449768,0.790402889251709,-3.4821135997772217,1.9730778932571411,14
4.5394062995910645,-7.55280876159668,-0.5796960592269897,0.7184996604919434,-3.8379013538360596,2.121145248413086,14
4.491522312164307,-8.558971405029297,-0.1867477297782898,0.6668358445167542,-4.040295600891113,2.388518810272217,14
5.030517101287842,-9.912593841552734,-0.06224924325942993,0.6087806820869446,-4.129242897033691,2.6329896450042725,14
6.115688800811768,-11.373655319213867,-0.34745851159095764,0.48414841294288635,-4.181971549987793,2.925396203994751,14
6.568492412567139,-12.787132263183594,-0.8744821548461914,0.2854824364185333,-4.118057727813721,3.264206886291504,14
6.980295181274414,-13.55118179321289,-1.3748703002929688,-0.03621792420744896,-3.9838383197784424,3.6913652420043945,14
7.617751121520996,-13.879486083984375,-2.0147206783294678,-0.6051189303398132,-3.639235496520996,4.309732913970947,14
9.723152160644531,-14.094964981079102,-1.942595362663269,-1.1627683639526367,-3.189107894897461,4.7901530265808105,14
13.254301071166992,-13.917794227600098,-1.0684125423431396,-1.3832716941833496,-3.002692222595215,4.941416263580322,14
16.897676467895508,-12.878111839294434,-0.026336219161748886,-2.2967090606689453,-2.2128219604492188,5.325432777404785,14
21.123443603515625,-11.0887451171875,2.0482394695281982,-2.824598550796509,-1.6519767045974731,5.368574619293213,14
26.44605255126953,-9.28261947631836,4.666299343109131,-3.164407968521118,-1.2168289422988892,5.225833415985107,14
31.82402801513672,-7.141005992889404,7.526472091674805,-3.575587749481201,-0.6548519730567932,4.703869342803955,14
35.24713897705078,-4.551377296447754,9.984419822692871,-3.8259174823760986,-0.2910749316215515,4.245286464691162,14
37.0796012878418,-1.8731635808944702,11.479000091552734,-4.295685291290283,0.40452224016189575,3.5656678676605225,14
38.43531799316406,-0.1843535304069519,12.64348030090332,-4.695147514343262,1.0111724138259888,3.0596156120300293,14
38.353912353515625,0.735319197177887,13.266271591186523,-5.392409324645996,2.1244075298309326,2.1845266819000244,14
36.09498596191406,1.389235496520996,13.134291648864746,-5.9191670417785645,2.9483652114868164,1.567224144935608,14
31.701623916625977,1.7893664836883545,12.799102783203125,-6.753244400024414,4.067991733551025,0.6851445436477661,14
26.302400588989258,2.146401882171631,13.464990615844727,-7.223078727722168,4.5542707443237305,0.1855502724647522,14
20.536563873291016,2.8242602348327637,15.230414390563965,-7.553300857543945,4.746545314788818,-0.35185977816581726,14
15.91784954071045,3.8208465576171875,18.627187728881836,-7.514420032501221,4.675174713134766,-0.45944830775260925,14
13.158233642578125,4.479551315307617,21.861156463623047,-6.6909284591674805,3.9364354610443115,-0.71723473072052,14
10.995370864868164,5.035305500030518,23.43983268737793,-5.635282516479492,3.082051992416382,-0.8503888249397278,14
9.493309020996094,5.933729648590088,23.703195571899414,-4.1870317459106445,2.0588955879211426,-0.9925974607467651,14
8.130110740661621,6.539762020111084,22.30198860168457,-3.0466995239257812,1.4357343912124634,-1.077283501625061,14
6.745663166046143,6.9276227951049805,19.78418731689453,-2.293513298034668,1.1027824878692627,-1.138534426689148,14
5.435436248779297,7.296628952026367,16.73487091064453,-1.580339789390564,0.8796161413192749,-1.2306770086288452,14
3.7992987632751465,7.54083776473999,13.718775749206543,-1.1073763370513916,0.8300828337669373,-1.3079063892364502,14
1.901893973350525,7.656058311462402,11.162965774536133,-0.8027196526527405,0.9078448414802551,-1.3638311624526978,14
-0.12210428714752197,7.8092875480651855,9.174580574035645,-0.5987275242805481,1.0085093975067139,-1.4021795988082886,14
-1.9931728839874268,8.075043678283691,7.732673168182373,-0.3526587188243866,1.1523158550262451,-1.4773451089859009,14
-2.6518776416778564,7.555202960968018,6.307225227355957,-0.28075549006462097,1.2445250749588013,-1.5029106140136719,14
-5.524022102355957,8.9064302444458,6.455665588378906,-0.28075549006462097,1.2445250749588013,-1.5029106140136719,14
-7.193678379058838,9.601048469543457,6.858190536499023,0.27323228120803833,1.4836698770523071,-1.3638311624526978,14
-8.06307315826416,9.632172584533691,7.229591369628906,0.6950645446777344,1.4879307746887207,-1.2897974252700806,14
-8.391377449035645,9.155426979064941,7.181707382202148,1.1765499114990234,1.491659164428711,-1.2636992931365967,14
-8.746018409729004,8.410531044006348,7.05481481552124,1.5610990524291992,1.4495824575424194,-1.245590329170227,14
-9.047688484191895,7.5866265296936035,7.200860977172852,2.2258710861206055,1.2301443815231323,-1.1790132522583008,14
-9.23682975769043,6.6810197830200195,7.454646110534668,2.48472261428833,1.0894670486450195,-1.1209579706192017,14
-9.308955192565918,5.696404457092285,8.055890083312988,2.9560883045196533,0.8263545036315918,-0.9318791627883911,14
-8.971074104309082,4.388571739196777,9.296984672546387,3.3395721912384033,0.570698618888855,-0.7630397081375122,14
-9.735123634338379,3.7585973739624023,11.495759010314941,3.790698289871216,0.386945903301239,-0.5318841934204102,14
-9.251194953918457,3.22678542137146,13.646949768066406,3.790698289871216,0.386945903301239,-0.5318841934204102,14
-7.320570945739746,2.476801633834839,15.948974609375,4.732430934906006,-0.22076953947544098,-0.09726908802986145,14
-3.9788639545440674,1.6265608072280884,18.64873695373535,5.176100254058838,-0.33954301476478577,-0.06371425092220306,14
0.47913962602615356,0.22266076505184174,22.48394775390625,5.601661205291748,-0.3059881925582886,-0.15212859213352203,14
3.6146459579467773,-0.9175778031349182,26.474782943725586,6.2397356033325195,-0.3699021637439728,-0.3135114014148712,14
6.965929985046387,-1.4086884260177612,30.676607131958008,6.950845241546631,-0.9296821355819702,-0.45092645287513733,14
11.00015926361084,-1.4637550115585327,34.65786361694336,7.501570701599121,-1.7100318670272827,-0.5404060482978821,14
15.549142837524414,-2.532167673110962,37.84125518798828,8.103426933288574,-2.9291911125183105,-0.3060547709465027,14
23.125892639160156,-4.891653537750244,41.44422912597656,8.739904403686523,-2.7081551551818848,0.2931388020515442,14
33.57508850097656,-7.826046943664551,43.15458679199219,9.330642700195312,-1.8549035787582397,0.5455990433692932,14
42.30165481567383,-10.61199951171875,40.86932373046875,10.120512962341309,-1.0282161235809326,0.4912721514701843,14
47.35850524902344,-12.660239219665527,35.12024688720703,10.937013626098633,-1.138001799583435,-0.17023755609989166,14
47.636531829833984,-14.454394340515137,26.98265266418457,11.217169761657715,-1.6519767045974731,-0.8269537091255188,14
44.31876754760742,-16.41374969482422,17.85595703125,10.972166061401367,-2.393911600112915,-1.9268734455108643,14
37.34086608886719,-17.233163833618164,9.692028045654297,10.155665397644043,-2.464749574661255,-2.63844895362854,14
29.461849212646484,-16.456844329833984,3.808875560760498,8.958809852600098,-1.921480655670166,-2.9265944957733154,14
23.295881271362305,-15.43871021270752,0.9343371987342834,7.952164173126221,-1.1864699125289917,-2.904757261276245,14
18.86930274963379,-15.316606521606445,0.031124621629714966,6.858702659606934,-0.33155378699302673,-2.728461265563965,14
15.34773063659668,-15.498865127563477,-0.4025251567363739,5.850392818450928,0.29853156208992004,-2.4573593139648438,14
12.157157897949219,-15.400403022766113,-1.18094003200531,5.322569847106934,0.5051867365837097,-2.2677478790283203,14
8.288427352905273,-15.163376808166504,-2.4624364376068115,4.7239089012146,0.5190348029136658,-1.9993091821670532,14
4.654327869415283,-14.15481948852539,-3.9788639545440674,4.120920658111572,0.4625774323940277,-1.6855981349945068,14
0.9558850526809692,-12.885293960571289,-5.368398666381836,3.3763227462768555,0.28947708010673523,-1.271688461303711,14
-2.206256866455078,-12.01799488067627,-6.664260387420654,2.691377878189087,0.08974587917327881,-0.9148354530334473,14
-5.095160484313965,-11.785757064819336,-7.761403560638428,2.1155529022216797,-0.029027599841356277,-0.60272216796875,14
-7.799710750579834,-12.07814884185791,-8.372223854064941,1.3842703104019165,-0.15632294118404388,-0.13774794340133667,14
-10.360309600830078,-12.554594993591309,-8.137292861938477,0.6945319175720215,-0.19893226027488708,0.4417388141155243,14
-12.600085258483887,-12.820651054382324,-6.503849029541016,0.19973118603229523,-0.13714875280857086,1.1262176036834717,14
-13.924976348876953,-12.552201271057129,-4.112939357757568,-0.01438064593821764,-0.21544337272644043,2.012491464614868,14
-14.396933555603027,-12.648268699645996,-1.9497779607772827,0.0846860259771347,-0.3166405260562897,2.606891632080078,14
-14.104541778564453,-12.887688636779785,-0.31872808933258057,0.43195199966430664,-0.4854799509048462,3.305750846862793,14
-12.954726219177246,-12.782343864440918,0.5868787169456482,1.0439283847808838,-0.7406032681465149,4.029044151306152,14
-11.129446983337402,-12.744036674499512,0.7425017952919006,1.4881305694580078,-0.955247700214386,4.400278091430664,14
-9.184157371520996,-12.758401870727539,-0.3067570924758911,1.9749419689178467,-1.177415370941162,4.739554405212402,14
-7.1577653884887695,-12.631209373474121,-1.8468273878097534,2.288719654083252,-1.262101411819458,4.892948150634766,14
-4.9275665283203125,-12.681787490844727,-3.746626377105713,2.368079662322998,-1.2775472402572632,4.847675800323486,14
-2.903268814086914,-13.036128997802734,-5.967248439788818,2.0564322471618652,-1.1726218461990356,4.5195841789245605,14
-1.877951979637146,-13.273454666137695,-7.84998893737793,1.4844021797180176,-1.0633689165115356,4.166459083557129,14
-1.3413515090942383,-13.579912185668945,-8.949525833129883,0.721162736415863,-0.8961272835731506,3.8516829013824463,14
-0.7712322473526001,-13.96088981628418,-8.12053394317627,-0.44373613595962524,-0.5888075828552246,3.479383945465088,14
0.29478609561920166,-14.81352424621582,-6.065410614013672,-0.44373613595962524,-0.5888075828552246,3.479383945465088,14
1.8372504711151123,-16.581642150878906,-4.15603494644165,-0.7569146156311035,-0.46950146555900574,3.463937997817993,14
4.335899353027344,-19.65729331970215,-2.75003981590271,-0.8655683994293213,-0.39333727955818176,3.7243876457214355,14
9.404723167419434,-25.028087615966797,-2.299630641937256,-0.8208286166191101,-0.3384777903556824,4.29215669631958,14
16.104896545410156,-30.159160614013672,-3.0110080242156982,-0.837872326374054,-0.020505735650658607,5.23914909362793,14
22.862531661987305,-31.05489158630371,-4.388571739196777,-1.0429296493530273,0.3459344208240509,6.040270805358887,14
29.895498275756836,-28.192323684692383,-5.368398666381836,-1.6921892166137695,1.1288807392120361,7.5475754737854,14
39.30979919433594,-25.5236873626709,-5.183745861053467,-2.3137526512145996,1.7686196565628052,8.42752456665039,14
50.49191665649414,-23.42546844482422,-2.879326820373535,-2.3137526512145996,1.7686196565628052,8.42752456665039,14
62.131629943847656,-21.307796478271484,2.074575662612915,-3.6666653156280518,3.1070849895477295,8.658679962158203,14
71.148193359375,-17.817649841308594,8.602066993713379,-3.365204334259033,3.385110855102539,7.022415637969971,14
71.37564086914062,-11.423933029174805,13.639766693115234,-2.434123992919922,3.314805507659912,4.637825012207031,14
60.392539978027344,-3.221997022628784,15.280693054199219,-1.1233547925949097,2.857287883758545,2.4497697353363037,14
46.258968353271484,0.900818407535553,12.092514038085938,-0.20033039152622223,2.0466456413269043,1.1560441255569458,14
32.635963439941406,2.076969861984253,6.244976043701172,0.4058537781238556,1.1182283163070679,0.30698683857917786,14
20.26332664489746,3.425503969192505,0.3546411395072937,0.5629756450653076,0.3017272651195526,-0.053061921149492264,14
10.908881187438965,5.3348798751831055,-3.557185173034668,-0.1614493727684021,0.24633513391017914,0.517370343208313,14
6.015132427215576,6.728903770446777,-5.373187065124512,-0.837872326374054,0.5696333646774292,1.007976770401001,14
4.194342136383057,8.66671085357666,-5.456984043121338,-1.7230809926986694,1.1027824878692627,1.5555064678192139,14
4.045901775360107,10.219051361083984,-3.923797369003296,-2.3600902557373047,1.538529396057129,1.8106298446655273,14
5.358821868896484,11.666047096252441,-1.7917606830596924,-3.025394916534424,2.0173516273498535,1.8244779109954834,14
6.951564788818359,13.342885971069336,0.9846154451370239,-3.1958322525024414,2.1196138858795166,1.6391273736953735,14
8.657134056091309,15.055638313293457,3.444657802581787,-2.734586238861084,1.4181580543518066,0.5253596305847168,14
9.493309020996094,17.237953186035156,5.366004467010498,-2.6339218616485596,1.294590950012207,0.37249866127967834,14
8.7484130859375,19.293075561523438,6.49906063079834,-2.1742072105407715,0.7752233147621155,-0.23415152728557587,14
7.057209014892578,20.603601455688477,6.89410400390625,-1.3912608623504639,0.05352795869112015,-1.0815443992614746,14
4.898836135864258,21.104290008544922,6.511031627655029,-0.7558494210243225,-0.356586754322052,-1.6728153228759766,14
2.431311845779419,21.259912490844727,5.404311656951904,-0.34573468565940857,-0.5675029158592224,-2.0088963508605957,14
0.491110622882843,21.362863540649414,4.371812343597412,0.02556559257209301,-0.7230269312858582,-2.2704110145568848,14
-0.2801215946674347,21.21442222595215,3.8040871620178223,0.2961347699165344,-0.7576469779014587,-2.4546964168548584,14
0.7520785927772522,20.754436492919922,4.326322555541992,0.4900071918964386,-0.7075810432434082,-2.592111349105835,14
3.2172086238861084,19.927839279174805,5.593453884124756,0.6838796138763428,-0.6516563296318054,-2.714613199234009,14
6.666654586791992,19.044078826904297,7.5575971603393555,1.1019835472106934,-0.5914706587791443,-2.9489643573760986,14
10.860997200012207,18.028339385986328,9.648932456970215,1.6005126237869263,-0.5754921436309814,-3.223262071609497,14
15.58745002746582,16.749237060546875,11.249156951904297,2.1666839122772217,-0.6292864084243774,-3.611006736755371,14
20.485986709594727,14.700997352600098,12.034753799438477,2.62107253074646,-0.6772218942642212,-4.039297103881836,14
24.546552658081055,11.606191635131836,11.99405288696289,3.1100144386291504,-0.7219616770744324,-4.684295654296875,14
27.34687042236328,8.252513885498047,11.60140323638916,3.5014874935150146,-0.777353823184967,-5.256325721740723,14
29.691991806030273,5.289090633392334,12.061090469360352,3.8290467262268066,-1.0058462619781494,-5.48322057723999,14
32.058658599853516,3.181295394897461,13.836390495300293,4.51292610168457,-1.5561057329177856,-4.759927272796631,14
36.480751037597656,1.0755951404571533,16.73726463317871,4.618983745574951,-1.615226149559021,-4.614522933959961,14
44.263702392578125,-2.8482022285461426,19.044078826904297,5.293275833129883,-1.7830003499984741,-3.9604697227478027,14
51.9796142578125,-8.734047889709473,17.580324172973633,6.004319190979004,-1.8266749382019043,-3.769726514816284,14
55.85762405395508,-14.399327278137207,13.649343490600586,6.514565944671631,-2.094048500061035,-4.200679779052734,14
52.123268127441406,-17.882291793823242,8.777143478393555,6.6333394050598145,-2.5233373641967773,-4.750872611999512,14
46.079402923583984,-21.300613403320312,3.9118263721466064,5.989405632019043,-3.096432685852051,-5.060855388641357,14
38.0330924987793,-21.180904388427734,0.19871874153614044,5.1366868019104,-3.160346746444702,-5.0001373291015625,14
30.64308738708496,-18.5769100189209,-1.1402385234832764,3.452486753463745,-2.717742443084717,-4.677371501922607,14
25.78974151611328,-17.022174835205078,-0.1843535304069519,2.293513298034668,-2.033862829208374,-4.392954349517822,14
22.814647674560547,-17.577930450439453,2.90805721282959,1.1424623727798462,-0.8647028803825378,-4.133570194244385,14
19.345748901367188,-19.163789749145508,6.304831027984619,0.45272403955459595,0.5664376616477966,-4.030242443084717,14
14.0542631149292,-20.20107650756836,9.100360870361328,0.45272403955459595,1.4975179433822632,-3.9333064556121826,14
7.54083776473999,-20.32796859741211,10.714950561523438,0.858045220375061,1.9806010723114014,-3.6179308891296387,14
0.7209540009498596,-19.623775482177734,10.580875396728516,1.4721519947052002,1.9390569925308228,-3.0166068077087402,14
-4.67827033996582,-18.028339385986328,9.244012832641602,1.9973119497299194,1.624280571937561,-2.409423828125,14
-7.888296127319336,-16.631919860839844,6.83903694152832,2.5566258430480957,1.0591078996658325,-1.6568368673324585,14
-8.834604263305664,-16.49754524230957,3.6314053535461426,2.8575541973114014,0.4854799509048462,-1.0740877389907837,14
-8.791508674621582,-17.04132843017578,0.15562310814857483,2.8090860843658447,0.10838746279478073,-0.7566483616828918,14
-9.31613826751709,-16.866552352905273,-2.7332804203033447,2.446906805038452,0.05352795869112015,-0.6884734034538269,14
-10.497077941894531,-16.516698837280273,-5.0592474937438965,1.8252767324447632,0.23195448517799377,-0.7465286254882812,14
-13.107954978942871,-16.91683006286621,-6.724115371704102,1.0316781997680664,0.6431344151496887,-0.7891379594802856,14
-16.169540405273438,-17.005416870117188,-7.9744873046875,0.16564373672008514,1.2397315502166748,-0.6421357989311218,14
-19.65489959716797,-17.08442497253418,-8.372223854064941,-0.6855440139770508,1.7611631155014038,-0.2820870280265808,14
-22.352266311645508,-17.74103546142578,-8.02955436706543,-1.4397289752960205,2.107363700866699,0.39167287945747375,14
-24.28049659729004,-18.931550979614258,-7.3780317306518555,-2.190185785293579,2.1302664279937744,1.6721495389938354,14
-24.76442527770996,-19.352930068969727,-5.823297023773193,-2.5497684478759766,1.8687516450881958,2.7506980895996094,14
-22.150854110717773,-19.238008499145508,-2.9176340103149414,-2.7654781341552734,1.2860691547393799,4.115860462188721,14
-16.818668365478516,-19.999963760375977,0.12449848651885986,-2.3835253715515137,0.09507204592227936,5.859713554382324,14
-10.089764595031738,-21.312585830688477,2.491166830062866,-2.3835253715515137,0.09507204592227936,5.859713554382324,14
-3.109469413757324,-22.510284423828125,3.897461175918579,-1.6048401594161987,-0.5121107697486877,6.419493675231934,14
3.770568370819092,-23.113922119140625,3.768174171447754,-1.1558444499969482,-0.701722264289856,6.449320316314697,14
11.107898712158203,-23.233633041381836,1.8803461790084839,-0.7835454940795898,-0.8433982729911804,6.125489234924316,14
18.99619483947754,-24.0506534576416,-2.0195090770721436,-0.9326781034469604,-0.9339430332183838,5.7132439613342285,14
25.935789108276367,-26.048315048217773,-6.012738227844238,-1.6937870979309082,-0.9728240370750427,5.277497291564941,14
33.615787506103516,-28.862998962402344,-7.591414928436279,-2.935382843017578,-0.7848104238510132,5.233290195465088,14
39.767391204833984,-28.96146011352539,-3.770568370819092,-4.285565376281738,0.386945903301239,5.916703701019287,14
43.82526397705078,-23.43743896484375,3.6385879516601562,-4.750007152557373,1.760097861289978,6.6767473220825195,14
50.01517105102539,-17.149368286132812,8.661922454833984,-5.018512725830078,3.6424312591552734,7.5236077308654785,14
60.59844207763672,-14.53100872039795,10.82747745513916,-5.094143867492676,4.219254970550537,7.17474365234375,14
67.93816375732422,-13.615824699401855,12.008418083190918,-4.964718341827393,4.436562538146973,5.113984107971191,14
65.66966247558594,-10.947188377380371,13.529633522033691,-4.5039381980896,4.416855812072754,2.85615611076355,14
54.1616325378418,-5.904999256134033,14.293683052062988,-3.7987542152404785,4.161199569702148,1.0388685464859009,14
39.999629974365234,-1.490091323852539,13.417106628417969,-3.1031570434570312,3.4767208099365234,-0.03974650800228119,14
27.63896369934082,0.9080010056495667,10.226234436035156,-2.683455228805542,2.767808198928833,-0.41630637645721436,14
15.242385864257812,4.474762916564941,7.900267124176025,-2.363818645477295,1.8778060674667358,-0.13135655224323273,14
8.779537200927734,6.256947040557861,5.938518047332764,-2.316415786743164,1.3734182119369507,0.4214994013309479,14
7.351695537567139,6.189908981323242,4.525041103363037,-2.3888516426086426,0.9509868025779724,1.078282117843628,14
7.756615161895752,6.352715015411377,3.6843771934509277,-2.4346566200256348,0.9131709933280945,1.1837401390075684,14
7.428309917449951,7.684788703918457,3.538031578063965,-2.6211390495300293,1.0793473720550537,1.1746857166290283,14
5.916970252990723,9.58668327331543,3.8854901790618896,-2.66481351852417,1.1666964292526245,1.0346075296401978,14
3.899855375289917,11.797728538513184,4.474762916564941,-2.636584997177124,1.1203588247299194,0.9216928482055664,14
2.383427858352661,13.941736221313477,5.269937038421631,-2.4314608573913574,0.8338111639022827,0.7874069213867188,14
1.4422072172164917,15.719131469726562,6.266523838043213,-2.0714120864868164,0.49027350544929504,0.6510571241378784,14
1.058835744857788,17.242740631103516,7.507318496704102,-1.6224164962768555,0.24313943088054657,0.5104463696479797,14
1.0085574388504028,18.59845733642578,8.377012252807617,-0.8890035152435303,-0.0790935531258583,0.29686713218688965,14
1.0133458375930786,19.65489959716797,7.972093105316162,0.036750540137290955,-0.47695809602737427,-0.03655080869793892,14
0.9463081955909729,20.543746948242188,6.690596580505371,0.675890326499939,-0.8673660159111023,-0.3907407820224762,14
0.7089830040931702,20.771196365356445,5.152621269226074,1.0343412160873413,-1.1806111335754395,-0.7039192914962769,14
1.777395486831665,20.32796859741211,3.643376350402832,1.2607033252716064,-1.6429221630096436,-1.2471880912780762,14
2.1511902809143066,19.571102142333984,2.7620110511779785,1.2607033252716064,-1.6429221630096436,-1.2471880912780762,14
2.8098950386047363,18.39495086669922,3.1310172080993652,1.0018516778945923,-1.76222825050354,-2.0658862590789795,14
3.8160581588745117,17.33850860595703,5.0592474937438965,0.8713605999946594,-1.4655609130859375,-2.278932809829712,14
5.50007963180542,16.30600929260254,7.936180114746094,0.9027850031852722,-1.0484555959701538,-2.3471078872680664,14
8.50869369506836,15.180136680603027,10.743680953979492,1.15045166015625,-0.375760942697525,-2.399836778640747,14
13.000215530395508,13.786112785339355,12.868535041809082,1.602110505104065,0.2921401560306549,-2.555360794067383,14
18.27045249938965,11.804910659790039,13.299790382385254,2.5241363048553467,1.017031192779541,-3.4789178371429443,14
22.740427017211914,9.438241958618164,12.50671100616455,2.839445114135742,0.992530882358551,-4.056873321533203,14
25.732280731201172,6.858190536499023,11.807305335998535,3.0540895462036133,0.8204957246780396,-4.415856838226318,14
27.905019760131836,3.7777509689331055,12.044330596923828,3.410942792892456,0.2841508984565735,-4.678436756134033,14
29.871557235717773,0.9199720025062561,14.035109519958496,3.846090316772461,-0.6223623752593994,-4.422780990600586,14
32.88765335083008,-1.224035620689392,17.875110626220703,5.046674728393555,-2.2229416370391846,-2.8104841709136963,14
40.34947967529297,-4.55616569519043,20.98906898498535,5.046674728393555,-2.2229416370391846,-2.8104841709136963,14
50.36023712158203,-9.775824546813965,20.222623825073242,5.397136211395264,-2.258626937866211,-2.54577374458313,14
57.105899810791016,-14.590864181518555,15.568296432495117,6.55983829498291,-1.8458491563796997,-2.9974324703216553,14
58.07585144042969,-19.48251724243164,9.773430824279785,6.520956993103027,-2.2506375312805176,-3.9295780658721924,14
53.086334228515625,-24.225431442260742,5.035305500030518,6.170495510101318,-2.7156119346618652,-4.5980119705200195,14
44.69735336303711,-27.15982437133789,0.6802525520324707,5.1963396072387695,-2.9062886238098145,-5.347403049468994,14
34.011131286621094,-25.281871795654297,-2.9990367889404297,4.975304126739502,-2.8492987155914307,-5.443274021148682,14
23.530813217163086,-21.556793212890625,-3.360860586166382,2.6642143726348877,-1.6051064729690552,-5.379360198974609,14
15.623363494873047,-18.9267635345459,-0.14365209639072418,1.6543068885803223,-0.8194305300712585,-4.713589668273926,14
11.17972469329834,-18.069040298461914,4.398148536682129,1.227148413658142,-0.06790860742330551,-3.9705896377563477,14
8.738836288452148,-18.734928131103516,7.761403560638428,1.3469871282577515,0.5648398399353027,-3.3947644233703613,14
6.173149585723877,-19.333776473999023,9.364022254943848,1.854570746421814,0.9616391062736511,-2.961747169494629,14
2.493561029434204,-18.955493927001953,9.359233856201172,2.5470387935638428,1.0117050409317017,-2.530860424041748,14
-1.4996681213378906,-18.04030990600586,7.818864345550537,3.10255765914917,0.8471265435218811,-2.1734747886657715,14
-4.867711544036865,-16.96471405029297,5.1909284591674805,3.7092080116271973,0.3480648994445801,-1.7122288942337036,14
-7.385214328765869,-16.17432975769043,2.139219284057617,3.873786449432373,-0.12010502070188522,-1.4405279159545898,14
-9.08838939666748,-15.886725425720215,-1.027711033821106,3.672457456588745,-0.43594661355018616,-1.3244175910949707,14
-10.63354778289795,-15.721525192260742,-3.832817554473877,3.2532882690429688,-0.5232957005500793,-1.3201565742492676,14
-12.468403816223145,-15.67603588104248,-5.789778232574463,2.466081142425537,-0.45938172936439514,-1.3361351490020752,14
-14.483124732971191,-15.874753952026367,-6.62355899810791,1.5073047876358032,-0.2079867422580719,-1.324950098991394,14
-17.225982666015625,-16.30361557006836,-6.271312236785889,0.41117995977401733,0.3358147144317627,-1.163567304611206,14
-20.177135467529297,-16.72768783569336,-5.025728702545166,-0.29140782356262207,0.7810820937156677,-0.7800834774971008,14
-22.395362854003906,-16.995840072631836,-3.5859155654907227,-0.7585124969482422,1.007444143295288,-0.11591067165136337,14
-23.624187469482422,-17.808073043823242,-2.321178436279297,-1.0173641443252563,0.9584434032440186,0.8188313245773315,14
-23.846847534179688,-18.624794006347656,-1.128267526626587,-1.1063110828399658,0.4418053925037384,2.536586046218872,14
-21.81566619873047,-19.111116409301758,0.10534487664699554,-1.0839412212371826,0.21491076052188873,3.056419849395752,14
-17.108366012573242,-19.71714973449707,1.061229944229126,-0.9518522620201111,-0.3363473415374756,4.232503890991211,14
-10.851420402526855,-20.63233184814453,1.5427637100219727,-0.7627733945846558,-0.7619079351425171,5.128897190093994,14
-3.9932291507720947,-21.293432235717773,1.5523405075073242,-0.5342809557914734,-1.0196943283081055,5.756918907165527,14
3.243544816970825,-21.453842163085938,0.7712322473526001,-0.4394752085208893,-0.9845415949821472,5.890605449676514,14
10.978611946105957,-22.256498336791992,-0.9774328470230103,-0.4938020706176758,-0.8199630975723267,5.7979302406311035,14
18.330307006835938,-24.76442527770996,-3.7107133865356445,-0.8384049534797668,-0.5696333646774292,5.6898088455200195,14
25.032875061035156,-27.70600128173828,-6.242581844329834,-1.5739483833312988,-0.28574874997138977,5.903920650482178,14
31.90064239501953,-28.432043075561523,-5.8978166580200195,-2.6339218616485596,0.39600038528442383,6.739063739776611,14
40.09539794921875,-26.541820526123047,-1.9788076877593994,-3.1340487003326416,1.1672290563583374,7.39098596572876,14
49.3397102355957,-23.26236343383789,2.9415760040283203,-3.384378433227539,2.6996333599090576,7.740382671356201,14
57.884315490722656,-20.287267684936523,6.213851451873779,-3.338040828704834,3.620061159133911,7.360627174377441,14
63.24074172973633,-17.31217384338379,6.29286003112793,-3.2613439559936523,4.481302261352539,6.198990345001221,14
62.977081298828125,-14.2122802734375,4.977844715118408,-3.258148431777954,4.844546794891357,4.464191913604736,14
55.833683013916016,-10.329184532165527,3.7945103645324707,-3.2757246494293213,4.705000877380371,2.621272087097168,14
45.121124267578125,-6.721721172332764,3.0277674198150635,-3.248561143875122,4.200613498687744,1.2146319150924683,14
33.2755126953125,-3.2172086238861084,2.836231231689453,-3.1676034927368164,3.455948829650879,0.4635761082172394,14
22.701820373535156,0.5222352743148804,3.339312791824341,-3.0557541847229004,2.609621286392212,0.37942269444465637,14
15.580267906188965,3.1908724308013916,3.5284547805786133,-2.9721333980560303,1.6961838006973267,0.8523861765861511,14
12.456433296203613,3.749020576477051,3.0086138248443604,-3.000361919403076,1.2605035305023193,1.2716219425201416,14
11.953351020812988,3.4159271717071533,2.3044190406799316,-3.104222297668457,1.1821423768997192,1.428743839263916,14
11.493365287780762,3.8040871620178223,2.0865468978881836,-3.137244462966919,1.1943925619125366,1.4372656345367432,14
9.809343338012695,5.15740966796875,2.4624364376068115,-3.496227979660034,1.3111021518707275,1.2061101198196411,14
7.620145320892334,7.085939407348633,3.444657802581787,-3.5787835121154785,1.2328075170516968,1.124619722366333,14
5.909787654876709,9.045293807983398,5.085583686828613,-3.5473592281341553,1.0037158727645874,1.085206151008606,14
5.068824291229248,11.129446983337402,7.155371189117432,-3.2560179233551025,0.6420692205429077,1.0186290740966797,14
4.6255974769592285,13.350069046020508,8.298004150390625,-2.852827310562134,0.31930360198020935,0.8742899894714355,14
3.7992987632751465,15.948974609375,8.525452613830566,-2.0059003829956055,-0.10892007499933243,0.42576032876968384,14
2.7859530448913574,18.742109298706055,8.434473037719727,-2.0059003829956055,-0.10892007499933243,0.42576032876968384,14
2.24935245513916,20.699369430541992,7.70394229888916,-1.617622971534729,-0.2063889056444168,0.1418757289648056,14
1.96683669090271,22.086212158203125,6.817489147186279,-1.3587713241577148,-0.26657456159591675,-0.1238999143242836,14
2.187103271484375,22.112546920776367,5.924152851104736,-1.090865135192871,-0.3890763521194458,-0.6293529868125916,14
2.474407434463501,21.81087875366211,5.650914669036865,-0.9449282884597778,-0.47695809602737427,-1.1017838716506958,14
2.6686370372772217,21.15696144104004,6.115688800811768,-0.836807131767273,-0.5227631330490112,-1.5646941661834717,14
3.1717185974121094,19.932926177978516,7.4187331199646,-0.6663698554039001,-0.4210333526134491,-2.002504825592041,14
4.017171382904053,18.10495376586914,9.459790229797363,-0.3228321969509125,-0.111050546169281,-2.359358072280884,14
5.36361026763916,16.24136734008789,11.594221115112305,0.2561885416507721,0.3129121959209442,-2.6506991386413574,14
6.934805393218994,14.255375862121582,12.70333480834961,0.544866681098938,0.48974087834358215,-2.7524290084838867,14
8.83699893951416,12.138004302978516,12.513894081115723,0.6993255019187927,0.5648398399353027,-2.7998318672180176,14
11.009736061096191,10.128071784973145,11.704354286193848,2.638648748397827,0.88600754737854,-3.312208890914917,14
13.467384338378906,8.341099739074707,10.197504043579102,3.3001585006713867,0.6441996693611145,-3.5944957733154297,14
15.972916603088379,6.678625583648682,8.48475170135498,3.743295431137085,0.19413872063159943,-3.8811099529266357,14
18.296789169311523,5.672462463378906,7.651269912719727,3.966994285583496,-0.2181064635515213,-4.012133598327637,14
22.24452781677246,4.623203277587891,8.012794494628906,4.182703971862793,-0.7443315982818604,-3.8395657539367676,14
28.800750732421875,3.3249475955963135,10.28130054473877,4.384033203125,-1.0745538473129272,-3.2019572257995605,14
40.05229949951172,1.413476824760437,12.466010093688965,4.657331943511963,-1.038335919380188,-2.703428268432617,14
53.24674606323242,-2.4432828426361084,12.420519828796387,5.115914821624756,-0.6548519730567932,-2.517544984817505,14
62.49794006347656,-8.053496360778809,9.275436401367188,5.559051513671875,-0.279357373714447,-2.927659749984741,14
65.77500915527344,-14.032715797424316,5.025728702545166,5.704455852508545,-0.9041165113449097,-3.8209242820739746,14
61.958946228027344,-17.839197158813477,0.8816647529602051,5.357722759246826,-1.998710036277771,-4.746611595153809,14
54.96428680419922,-20.749649047851562,-1.2599486112594604,3.6996209621429443,-2.469010353088379,-6.09579610824585,14
46.73332214355469,-21.403564453125,-1.700780987739563,3.6996209621429443,-2.469010353088379,-6.09579610824585,14
36.67947006225586,-20.098125457763672,-1.0468647480010986,2.503364086151123,-1.5225508213043213,-6.512301921844482,14
26.429292678833008,-18.62958335876465,0.7257423996925354,1.7033076286315918,-0.4828168749809265,-6.273157119750977,14
18.59845733642578,-17.652149200439453,3.749020576477051,1.2915949821472168,0.3986634612083435,-5.60678768157959,14
13.786112785339355,-17.661725997924805,6.546944618225098,1.356041669845581,1.070825457572937,-4.840884685516357,14
10.774805068969727,-18.131288528442383,8.606855392456055,1.7230144739151,1.3403960466384888,-4.302942276000977,14
7.893084526062012,-18.256086349487305,9.035717010498047,2.8522279262542725,1.1805444955825806,-3.4837114810943604,14
4.8509521484375,-17.786523818969727,8.1325044631958,3.2772560119628906,0.9344756603240967,-3.2482950687408447,14
2.254140853881836,-17.252317428588867,6.2306108474731445,3.2772560119628906,0.9344756603240967,-3.2482950687408447,14
0.07661445438861847,-16.919225692749023,3.895066976547241,4.1715192794799805,-0.23461757600307465,-2.8472347259521484,14
-1.8085200786590576,-17.007810592651367,1.2862848043441772,4.289760112762451,-0.8258218765258789,-2.8461694717407227,14
-3.784933567047119,-17.78891944885254,-1.6481086015701294,4.077246189117432,-1.1933938264846802,-2.995302200317383,14
-6.515820026397705,-18.792388916015625,-4.639962673187256,3.4929656982421875,-1.3031128644943237,-3.228588104248047,14
-10.403704643249512,-19.31222915649414,-7.030872344970703,2.5912458896636963,-1.1907308101654053,-3.424058437347412,14
-15.580267906188965,-19.95926284790039,-8.367435455322266,1.6931878328323364,-1.0021179914474487,-3.39103627204895,14
-20.749649047851562,-20.45965003967285,-8.187870979309082,0.28388461470603943,-0.5845466256141663,-2.924464225769043,14
-25.42791748046875,-21.032163619995117,-6.496666431427002,-0.7015225291252136,-0.28681400418281555,-2.105299949645996,14
-28.83666229248047,-21.561582565307617,-4.414907932281494,-1.5089691877365112,-0.1872147023677826,-0.5814175009727478,14
-29.876344680786133,-21.57355308532715,-1.9306243658065796,-1.8370609283447266,-0.27882474660873413,0.9781502485275269,14
-28.201900482177734,-20.99625015258789,0.9870096445083618,-1.8322674036026,-0.4332835376262665,2.5823912620544434,14
-23.67925262451172,-20.363882064819336,3.6170401573181152,-1.536132574081421,-0.6207645535469055,4.026913642883301,14
-17.149368286132812,-20.07897186279297,4.877288341522217,-1.1782143115997314,-0.7768211960792542,4.940883636474609,14
-10.025120735168457,-20.002357482910156,4.874894142150879,-0.7100443840026855,-0.8966599106788635,5.744135856628418,14
