AccX,AccY,AccZ,GyroX,GyroY,GyroZ,Label
-2.661454439163208,5.411494255065918,10.652701377868652,0.19653549790382385,-0.31131434440612793,-0.3609142601490021,14
-3.3919851779937744,5.2124762535095215,9.97484302520752,0.5555190443992615,-0.9813459515571594,-0.20006407797336578,14
-3.377619981765747,4.92996072769165,9.153033256530762,0.7989247441291809,-1.4149622917175293,0.0071237459778785706,14
-2.575263261795044,4.642356872558594,8.42968463897705,0.912904679775238,-1.5694211721420288,0.14081048965454102,14
-1.4733319282531738,4.6471452713012695,7.818864345550537,0.9709599018096924,-1.584334373474121,0.21910512447357178,14
-0.862511157989502,4.733336925506592,6.8342485427856445,0.7089125514030457,-1.346254825592041,0.16957178711891174,14
-0.5988497138023376,4.810250282287598,5.559935092926025,0.7089125514030457,-1.346254825592041,0.16957178711891174,14
-0.6802525520324707,4.822221279144287,4.599261283874512,0.49426811933517456,-1.2450577020645142,0.13868002593517303,14
-0.8601169586181641,4.798279285430908,4.074632167816162,0.18694838881492615,-1.1395995616912842,0.12856030464172363,14
-0.9989806413650513,4.707000732421875,4.108150959014893,-0.09107742458581924,-1.0862714052200317,0.15998467803001404,14
-0.9846154451370239,4.486733913421631,4.551377296447754,-0.30312538146972656,-1.1411974430084229,0.22975744307041168,14
-0.9032126069068909,4.230554580688477,5.20289945602417,-0.35691964626312256,-1.2738189697265625,0.2808886468410492,14
-0.7999626398086548,3.9118263721466064,5.847239017486572,-0.3105820119380951,-1.5811387300491333,0.35119402408599854,14
-0.735319197177887,3.466205596923828,6.345532417297363,-0.18594974279403687,-1.9401222467422485,0.4199015498161316,14
-0.6754641532897949,2.9607295989990234,6.592434406280518,-0.1406773328781128,-2.042384624481201,0.440140962600708,14
-0.5509656667709351,2.390610456466675,6.37186861038208,0.5091813802719116,-3.2855114936828613,0.6851445436477661,14
-0.2876034677028656,1.755847692489624,5.655703067779541,0.7509892582893372,-3.7297801971435547,0.77675461769104,14
0.17477671802043915,1.0875661373138428,4.376600742340088,1.0375369787216187,-4.293821334838867,0.9046491384506226,14
0.4097077548503876,0.10773907601833344,3.092710018157959,1.1653649806976318,-4.653870105743408,0.9744219183921814,14
0.41689038276672363,-0.8433575630187988,2.098517894744873,1.342726230621338,-5.204595565795898,1.115565299987793,14
0.6180033087730408,-1.5643115043640137,1.0205284357070923,1.480141282081604,-5.695667743682861,1.2620347738265991,14
0.9654618501663208,-2.9774889945983887,-0.026336219161748886,1.6175563335418701,-6.214502811431885,1.4132978916168213,14
1.6648679971694946,-4.786308288574219,-1.6409260034561157,1.662296175956726,-6.7210211753845215,1.561897873878479,14
2.055422067642212,-6.98508358001709,-3.339312791824341,1.6154258251190186,-7.0997114181518555,1.7078348398208618,14
2.009932279586792,-8.681076049804688,-4.8509521484375,1.405574917793274,-7.597707748413086,1.973610520362854,14
1.2647370100021362,-9.646537780761719,-5.705981254577637,1.3576394319534302,-7.727133750915527,2.0306005477905273,14
0.491110622882843,-10.477924346923828,-5.856815814971924,0.8228924870491028,-8.428123474121094,2.832188367843628,14
0.36900633573532104,-11.938985824584961,-5.3779754638671875,0.6263570189476013,-8.544234275817871,3.3116097450256348,14
1.6002246141433716,-13.90582275390625,-4.307168960571289,0.47349607944488525,-8.192174911499023,3.975250005722046,14
3.9740755558013916,-15.649699211120605,-2.7189152240753174,0.4596480429172516,-7.54604434967041,4.263927936553955,14
7.126640796661377,-16.876129150390625,-1.4757261276245117,0.38721221685409546,-5.486882209777832,4.523312091827393,14
10.485107421875,-17.86313819885254,-2.270900249481201,0.28122150897979736,-4.863720893859863,4.518518924713135,14
13.78132438659668,-18.986618041992188,-5.054459095001221,-0.39207231998443604,-3.208814859390259,4.350744724273682,14
16.447267532348633,-19.829675674438477,-7.469011306762695,-1.2889984846115112,-2.328932285308838,4.160068035125732,14
19.736303329467773,-20.522199630737305,-8.168717384338379,-2.0980429649353027,-2.0125579833984375,4.034370422363281,14
23.90460777282715,-21.4658145904541,-7.5866265296936035,-3.0648086071014404,-2.0035035610198975,3.8745853900909424,14
28.211477279663086,-22.881685256958008,-5.433042049407959,-3.964930534362793,-2.329464912414551,3.8751180171966553,14
32.03232192993164,-23.528419494628906,-1.025316834449768,-4.310065746307373,-2.6447739601135254,4.210666179656982,14
35.922603607177734,-22.64914894104004,5.229235649108887,-4.342022895812988,-3.0788562297821045,5.308921813964844,14
40.864532470703125,-20.411766052246094,11.08635139465332,-3.992626428604126,-3.2519567012786865,6.544126033782959,14
48.73846435546875,-16.72529411315918,15.48449993133545,-3.6437628269195557,-3.147031307220459,7.353703022003174,14
58.40894317626953,-12.641085624694824,17.6856689453125,-3.285311698913574,-2.44930362701416,7.664218425750732,14
66.46244049072266,-9.006986618041992,17.74821662902832,-3.098896026611328,-1.038335919380188,6.932403564453125,14
67.9980239868164,-5.099948883056641,17.225982666015625,-2.857088088989258,1.7430541515350342,4.0934906005859375,14
62.078956604003906,-0.982221245765686,17.843984603881836,-2.7798588275909424,1.9188175201416016,3.748887777328491,14
51.14344024658203,2.5896284580230713,19.633352279663086,-2.0746078491210938,2.2687466144561768,2.243114471435547,14
38.162376403808594,5.612607479095459,18.385374069213867,-0.8602422475814819,1.6727486848831177,1.2103710174560547,14
26.87012481689453,8.012794494628906,14.396933555603027,-0.16997124254703522,0.9126383662223816,0.9840090274810791,14
18.81902313232422,9.80216121673584,9.455001831054688,0.3291569948196411,-0.13874660432338715,1.1208914518356323,14
15.10831069946289,10.626364707946777,4.9275665283203125,0.21943800151348114,-0.556317925453186,1.3355358839035034,14
12.394184112548828,12.046725273132324,1.7079635858535767,-0.09746882319450378,-0.44659894704818726,1.4463201761245728,14
11.378443717956543,12.887688636779785,-0.22266076505184174,-1.037603497505188,0.12862688302993774,1.4138305187225342,14
9.979631423950195,12.9834566116333,-1.0732009410858154,-1.4035110473632812,0.36244553327560425,1.2774807214736938,14
7.603385925292969,13.453019142150879,-0.756866991519928,-2.002704620361328,0.6814828515052795,0.8998556137084961,14
3.7083191871643066,14.770428657531738,0.5461772680282593,-2.280197858810425,0.6916025280952454,0.6297524571418762,14
-0.3259107172489166,16.6798038482666,2.709338426589966,-2.297774314880371,0.410381019115448,0.561577558517456,14
-3.923797369003296,18.51944923400879,4.9922099113464355,-2.102303981781006,0.12809427082538605,0.6563832759857178,14
-6.352715015411377,20.421342849731445,6.872556209564209,-1.620285987854004,-0.22449785470962524,0.8742899894714355,14
-6.630741596221924,22.05987548828125,7.70394229888916,-1.1116372346878052,-0.4625774323940277,1.0063788890838623,14
-4.764461517333984,22.82183074951172,7.172130584716797,-0.46504080295562744,-0.679352343082428,0.955247700214386,14
-2.345120668411255,23.056461334228516,5.847239017486572,0.17469821870326996,-0.8636376857757568,0.46570655703544617,14
-0.39294835925102234,22.929569244384766,4.136881351470947,0.4873441159725189,-1.0628362894058228,-0.23361891508102417,14
0.7592611908912659,22.29720115661621,2.4791958332061768,0.5459319353103638,-1.25517737865448,-0.8599759340286255,14
1.798943281173706,21.494544982910156,1.63613760471344,0.41117995977401733,-1.467691421508789,-1.6392604112625122,14
2.431311845779419,20.718523025512695,2.4839842319488525,0.18748101592063904,-1.5438555479049683,-2.3375205993652344,14
3.269881010055542,19.85601234436035,4.611232280731201,0.02982652559876442,-1.3617006540298462,-2.952160120010376,14
4.548983097076416,18.8836669921875,7.188889980316162,0.11557777971029282,-0.9035838842391968,-3.3239264488220215,14
6.647500991821289,17.577930450439453,9.011775016784668,0.38028818368911743,-0.27669426798820496,-3.639768123626709,14
9.172186851501465,16.00912857055664,9.82640266418457,0.7563154697418213,0.36404338479042053,-3.968459129333496,14
12.195465087890625,14.538190841674805,9.88386344909668,1.188267469406128,0.778419017791748,-4.386562824249268,14
15.529989242553711,13.124714851379395,9.330503463745117,1.6164910793304443,0.9531172513961792,-4.941016674041748,14
18.47156524658203,11.390414237976074,8.372223854064941,1.8391247987747192,0.939801812171936,-5.329826831817627,14
20.426132202148438,9.5531644821167,7.538443088531494,1.8391247987747192,0.939801812171936,-5.329826831817627,14
22.275651931762695,8.264485359191895,7.914632320404053,2.261023759841919,0.6868090033531189,-6.302451133728027,14
25.05442237854004,7.847594738006592,9.799766540527344,2.452765703201294,0.7395380139350891,-6.220961093902588,14
29.124265670776367,8.367435455322266,12.02038860321045,2.891108989715576,1.0085093975067139,-5.054996967315674,14
34.71532440185547,9.074024200439453,14.657901763916016,2.891108989715576,1.0085093975067139,-5.054996967315674,14
44.141597747802734,8.61164379119873,17.412729263305664,3.3385069370269775,1.3814074993133545,-3.997220277786255,14
58.26289749145508,5.701192855834961,19.151817321777344,5.432289123535156,1.6509114503860474,-3.6930296421051025,14
71.0380630493164,-0.16998831927776337,19.30744171142578,5.432289123535156,1.6509114503860474,-3.6930296421051025,14
77.3165512084961,-8.626008987426758,17.0197811126709,6.201920032501221,0.3768261969089508,-4.483499050140381,14
71.68958282470703,-14.801553726196289,10.588057518005371,6.452249526977539,-1.0820103883743286,-5.6786909103393555,14
62.49794006347656,-19.3601131439209,4.894047737121582,5.837077617645264,-1.432538628578186,-6.663565158843994,14
50.31235122680664,-21.5831298828125,1.9114707708358765,5.045076847076416,-1.138001799583435,-7.233997344970703,14
36.31794357299805,-21.707927703857422,0.39055415987968445,3.7630021572113037,0.28787922859191895,-7.107767581939697,14
24.299650192260742,-20.462045669555664,1.2288240194320679,2.914544105529785,1.6487809419631958,-6.243330955505371,14
16.880918502807617,-19.166183471679688,3.1669301986694336,2.499635934829712,2.52919602394104,-5.122639179229736,14
11.891101837158203,-19.523218154907227,4.367023944854736,2.434123992919922,2.773667097091675,-4.292822360992432,14
7.8332295417785645,-19.029714584350586,4.750096321105957,2.6546273231506348,2.533989667892456,-3.1140756607055664,14
4.129698753356934,-17.74821662902832,4.618414878845215,2.8202710151672363,2.2943122386932373,-2.703428268432617,14
1.2934675216674805,-16.813880920410156,3.597886562347412,3.136112689971924,1.7073688507080078,-2.058429718017578,14
-0.39294835925102234,-16.593612670898438,1.6098014116287231,3.2495598793029785,1.2578405141830444,-1.7766755819320679,14
-1.5068507194519043,-17.079635620117188,-0.8215104341506958,3.1691348552703857,0.6223623752593994,-1.5439220666885376,14
-2.747645616531372,-17.637784957885742,-3.034950017929077,2.901228666305542,0.26763978600502014,-1.5077041387557983,14
-4.541800498962402,-17.911022186279297,-4.738125324249268,2.4687440395355225,-0.008788172155618668,-1.4959865808486938,14
-6.410175800323486,-18.368614196777344,-5.945700645446777,1.9307348728179932,-0.22449785470962524,-1.4362670183181763,14
-7.888296127319336,-19.1805477142334,-6.542156219482422,1.464162826538086,-0.3139774203300476,-1.3723530769348145,14
-9.636960983276367,-20.08615493774414,-6.369474411010742,0.8543168902397156,-0.29640108346939087,-1.168360948562622,14
-11.771391868591309,-20.85978126525879,-5.40910005569458,0.5086487531661987,-0.28894445300102234,-0.7736920714378357,14
-14.059051513671875,-21.144990921020508,-3.9788639545440674,0.35898351669311523,-0.3256950080394745,-0.13188916444778442,14
-16.047435760498047,-21.185691833496094,-2.642300844192505,0.42183226346969604,-0.475360244512558,0.7575803995132446,14
-16.947956085205078,-21.240758895874023,-1.6840215921401978,0.5704323053359985,-0.7182333469390869,1.6268771886825562,14
-16.329952239990234,-21.58791732788086,-1.535581111907959,0.8143706321716309,-1.1534476280212402,3.0718657970428467,14
-13.735535621643066,-22.397756576538086,-2.2469582557678223,0.9075785279273987,-1.4346691370010376,4.240492820739746,14
-9.88625717163086,-23.32251739501953,-3.154959201812744,0.8367405533790588,-1.5497143268585205,5.283356189727783,14
-5.269937038421631,-24.086566925048828,-3.9525277614593506,0.6694989800453186,-1.4224189519882202,6.00618314743042,14
0.3163338899612427,-24.774002075195312,-4.508281707763672,0.33661362528800964,-1.0186290740966797,6.739063739776611,14
6.831854343414307,-25.011327743530273,-5.186140060424805,-0.2456027865409851,-0.23461757600307465,7.273810386657715,14
15.549142837524414,-24.4097843170166,-6.537367820739746,-0.7984587550163269,0.4130440950393677,7.362757682800293,14
26.759992599487305,-23.530813217163086,-8.432079315185547,-1.8786050081253052,1.5284096002578735,6.919087886810303,14
37.81970977783203,-23.401525497436523,-10.561721801757812,-2.8214027881622314,2.173408269882202,6.395525932312012,14
43.58584213256836,-21.10189437866211,-11.65886402130127,-4.488492488861084,2.981920003890991,5.93534517288208,14
45.873504638671875,-14.81113052368164,-9.090784072875977,-5.591608047485352,3.250358819961548,6.110043525695801,14
50.024749755859375,-8.051101684570312,-2.45285964012146,-6.6206231117248535,3.2705981731414795,6.514299392700195,14
57.92022705078125,-2.9990367889404297,4.9706621170043945,-7.078140735626221,3.235445499420166,6.447189807891846,14
64.59406280517578,-0.047884032130241394,12.665027618408203,-6.788397312164307,3.165140151977539,5.12996244430542,14
65.57628631591797,2.1152772903442383,20.117279052734375,-6.07628870010376,2.964876413345337,3.704148054122925,14
57.30940628051758,4.917989730834961,25.18849754333496,-4.648277282714844,2.6575567722320557,1.8995767831802368,14
43.8468132019043,6.477512836456299,25.4183406829834,-2.9327197074890137,2.107896327972412,0.6915359497070312,14
27.495311737060547,10.022727012634277,23.509265899658203,-0.9273519515991211,1.1507179737091064,0.47689151763916016,14
16.432903289794922,11.83842945098877,19.202096939086914,0.1278279572725296,0.30012941360473633,0.8657015562057495,14
11.934197425842285,11.742661476135254,12.787132263183594,0.8990566730499268,-0.5323501825332642,1.3690907955169678,14
10.238204956054688,11.54394245147705,6.515820026397705,1.0093083381652832,-0.7123745679855347,1.659899353981018,14
8.377012252807617,11.687594413757324,1.3988122940063477,0.7019885778427124,-0.49240395426750183,1.7163567543029785,14
5.435436248779297,12.604873657226562,-1.7941548824310303,0.07935985922813416,-0.1435401439666748,1.7525746822357178,14
2.6446950435638428,13.409923553466797,-3.3033998012542725,-0.7702300548553467,0.2090519815683365,1.7728140354156494,14
0.8864531517028809,13.984831809997559,-3.8376059532165527,-1.4093698263168335,0.4950670599937439,1.6923890113830566,14
-0.004788403399288654,14.81352424621582,-3.6361937522888184,-1.893518328666687,0.6900047063827515,1.4575051069259644,14
-0.8481459617614746,15.910667419433594,-3.0229790210723877,-2.1379892826080322,0.7533860802650452,1.1725552082061768,14
-1.9306243658065796,17.13979148864746,-2.167949676513672,-2.233327627182007,0.7496577501296997,0.8518535494804382,14
-2.924816608428955,18.476354598999023,-1.3772644996643066,-2.232262372970581,0.7363423109054565,0.7735589146614075,14
-2.970306396484375,19.71954345703125,-0.6706757545471191,-1.7731469869613647,0.35285845398902893,0.01564561016857624,14
-2.0889410972595215,20.306421279907227,-0.2298433631658554,-0.8948622941970825,-0.6910699009895325,-1.0107064247131348,14
-1.0468647480010986,20.07657814025879,-0.6299743056297302,-0.8384049534797668,-0.8194305300712585,-1.1257516145706177,14
-0.5030816197395325,19.2427978515625,-1.5643115043640137,-0.7260228991508484,-1.3441243171691895,-1.540193796157837,14
-0.29239189624786377,18.44762420654297,-2.122459888458252,-0.8815469145774841,-1.8240118026733398,-1.96788489818573,14
-0.047884032130241394,17.810466766357422,-1.27191960811615,-1.0157662630081177,-1.9278720617294312,-2.101571559906006,14
0.5006874203681946,17.367238998413086,0.9080010056495667,-1.5851333141326904,-1.792587399482727,-2.3945107460021973,14
1.7486650943756104,16.947956085205078,3.8663365840911865,-1.9606279134750366,-0.8668333888053894,-2.437652587890625,14
4.28322696685791,16.672622680664062,7.799710750579834,-1.044527530670166,1.2956562042236328,-2.8232669830322266,14
8.772355079650879,16.389806747436523,12.394184112548828,-0.06497921794652939,1.7664892673492432,-3.4352433681488037,14
13.972860336303711,15.053243637084961,15.239991188049316,-0.06497921794652939,1.7664892673492432,-3.4352433681488037,14
18.905214309692383,13.374011039733887,16.756418228149414,0.5773562788963318,1.8623602390289307,-3.908273458480835,14
22.038328170776367,11.536760330200195,17.403152465820312,1.6468502283096313,1.7377279996871948,-4.732763767242432,14
23.461381912231445,9.914987564086914,17.599477767944336,2.652496814727783,1.3409286737442017,-5.342609882354736,14
24.50345802307129,9.157821655273438,17.84638023376465,3.5073463916778564,0.839669942855835,-5.543406009674072,14
26.894067764282227,9.335291862487793,17.841590881347656,4.118790149688721,0.4940018057823181,-5.362849235534668,14
31.677682876586914,9.392752647399902,17.527650833129883,4.411729335784912,0.5121107697486877,-5.01771354675293,14
37.985206604003906,8.657134056091309,17.108366012573242,4.64241886138916,1.0495208501815796,-4.440889835357666,14
44.60846710205078,6.783970355987549,17.1900691986084,4.808062553405762,1.5262792110443115,-4.047286510467529,14
51.826087951660156,3.2794578075408936,17.57074737548828,5.4914093017578125,2.2559638023376465,-3.3233938217163086,14
58.53104782104492,-1.1450269222259521,16.277278900146484,6.3435959815979,1.6003128290176392,-3.5811803340911865,14
59.54199981689453,-6.216245651245117,12.4971342086792,6.7403950691223145,0.16804051399230957,-4.289093971252441,14
53.99403762817383,-10.36988639831543,6.958747386932373,6.512968063354492,-1.2589056491851807,-4.9857563972473145,14
45.97645568847656,-11.852794647216797,1.4757261276245117,5.818436145782471,-1.930535078048706,-5.4070563316345215,14
37.513248443603516,-11.864766120910645,-3.418321371078491,4.401609420776367,-1.7094992399215698,-5.718104362487793,14
29.526792526245117,-11.582249641418457,-6.137236595153809,2.6514315605163574,-0.4332835376262665,-5.690408229827881,14
22.00241470336914,-11.879131317138672,-5.6461262702941895,0.6806839108467102,1.624813199043274,-5.229162216186523,14
15.335760116577148,-12.698546409606934,-2.450465440750122,-0.35638701915740967,3.0644757747650146,-4.5889573097229,14
9.943717956542969,-13.713987350463867,0.982221245765686,-0.7649039030075073,3.8842389583587646,-3.8454246520996094,14
5.116708278656006,-14.981417655944824,3.7825393676757812,-0.5955318212509155,4.245885848999023,-3.026726484298706,14
1.9090765714645386,-16.06180191040039,5.636549472808838,0.0319569893181324,4.115927219390869,-2.2959766387939453,14
0.0,-16.866552352905273,5.988796234130859,0.9672315716743469,3.6243221759796143,-1.8384590148925781,14
-1.6002246141433716,-18.258481979370117,4.654327869415283,1.7746782302856445,2.9867136478424072,-1.6184884309768677,14
-3.0062196254730225,-21.40117073059082,1.8420389890670776,2.668475389480591,2.0935158729553223,-1.4677579402923584,14
-4.8365864753723145,-24.771608352661133,-1.8827403783798218,3.3768553733825684,1.1635007858276367,-1.4656274318695068,14
-8.02955436706543,-26.989835739135742,-5.892728805541992,3.56060791015625,0.595198929309845,-1.4288103580474854,14
-12.307991981506348,-28.566118240356445,-9.196128845214844,3.4658021926879883,0.2404763549566269,-1.2434598207473755,14
-16.42572021484375,-29.18651580810547,-10.93761157989502,3.1243951320648193,-0.28734660148620605,-0.6149723529815674,14
-19.870378494262695,-28.990190505981445,-11.323376655578613,3.060481071472168,-0.3874785006046295,-0.464774489402771,14
-22.66590690612793,-28.259361267089844,-11.105504989624023,3.060481071472168,-0.3874785006046295,-0.464774489402771,14
-24.057836532592773,-27.087997436523438,-11.009736061096191,2.1570968627929688,-2.0045688152313232,2.816742420196533,14
-22.500707626342773,-25.71312713623047,-10.870573997497559,1.5019785165786743,-2.562218189239502,5.000004291534424,14
-17.043724060058594,-25.013721466064453,-10.350732803344727,0.859110414981842,-2.741177558898926,6.626148700714111,14
-8.475174903869629,-25.11188316345215,-9.82879638671875,0.310515433549881,-2.6852526664733887,7.587521553039551,14
1.6600795984268188,-25.190893173217773,-9.488520622253418,-1.888192057609558,-1.2471880912780762,7.751567363739014,14
12.262502670288086,-24.57528305053711,-9.648932456970215,-2.0666186809539795,-1.10977303981781,7.581662654876709,14
21.784542083740234,-23.245603561401367,-10.049062728881836,-2.2503714561462402,-0.9696283340454102,7.396844863891602,14
29.270313262939453,-21.293432235717773,-10.274118423461914,-3.1942343711853027,-0.2697702646255493,6.263969421386719,14
34.28167724609375,-18.368614196777344,-8.96149730682373,-3.87172269821167,0.19307348132133484,5.185887336730957,14
36.722564697265625,-15.405191421508789,-5.159803867340088,-4.322848796844482,0.51796954870224,3.9390320777893066,14
36.25569534301758,-14.669872283935547,-0.7257423996925354,-4.187564373016357,0.433816134929657,3.572591781616211,14
34.439693450927734,-14.89283275604248,3.176506996154785,-3.95161509513855,0.1856168508529663,4.0748491287231445,14
34.44208908081055,-10.961852073669434,6.602011203765869,-3.460010051727295,-0.35978245735168457,5.688210964202881,14
39.33852767944336,-3.7825393676757812,9.057265281677246,-2.8256638050079346,-0.9637695550918579,7.994507312774658,14
49.41153335571289,1.5978304147720337,9.081207275390625,-2.6280629634857178,-0.7262226343154907,8.552689552307129,14
60.21028137207031,2.821866035461426,6.9731125831604,-2.6280629634857178,-0.7262226343154907,8.552689552307129,14
68.84137725830078,1.1330559253692627,6.094141006469727,-2.809152603149414,2.577131509780884,6.561702251434326,14
68.04351043701172,0.23942017555236816,6.580463409423828,-2.8011634349823,4.019523620605469,3.692963123321533,14
55.58229064941406,2.9846715927124023,8.199841499328613,-2.5119526386260986,4.176113128662109,1.7776075601577759,14
39.70035171508789,6.647500991821289,10.22383975982666,-2.096445083618164,3.7116713523864746,0.9536498785018921,14
26.410139083862305,9.028534889221191,10.406098365783691,-1.4077720642089844,2.4562275409698486,0.7447975873947144,14
17.91581153869629,9.936535835266113,8.039131164550781,-1.2192257642745972,2.0221452713012695,0.8401359915733337,14
12.744036674499512,10.461165428161621,5.6892218589782715,-1.2192257642745972,2.0221452713012695,0.8401359915733337,14
11.507730484008789,9.809343338012695,3.3895909786224365,-1.1435942649841309,1.82774019241333,0.9073122143745422,14
11.682806015014648,8.848969459533691,1.877951979637146,-1.0088422298431396,0.7991910576820374,1.7557703256607056,14
11.54394245147705,8.570942878723145,0.8888474106788635,-1.0088422298431396,0.7991910576820374,1.7557703256607056,14
10.051457405090332,9.026140213012695,0.2537853717803955,-1.4807404279708862,0.9967917799949646,0.9637695550918579,14
7.320570945739746,9.955689430236816,-0.15083470940589905,-1.647982120513916,1.0463250875473022,0.5408055186271667,14
3.9501335620880127,11.115081787109375,-0.2753331959247589,-1.748113989830017,0.9850742220878601,0.19194167852401733,14
0.651522159576416,12.549806594848633,-0.3594295382499695,-1.7640924453735352,0.7853430509567261,-0.07596442848443985,14
-2.2828712463378906,14.173973083496094,-0.4743511974811554,-1.711363434791565,0.5712311863899231,-0.22509706020355225,14
-4.661510944366455,15.776592254638672,-0.5342062711715698,-1.213366985321045,0.06098458915948868,-0.44986122846603394,14
-6.5277910232543945,17.13021469116211,-0.48632222414016724,-1.213366985321045,0.06098458915948868,-0.44986122846603394,14
-7.526472091674805,18.17677879333496,-0.6802525520324707,-0.8613075017929077,-0.10412652790546417,-0.5766239762306213,14
-7.294234752655029,18.7756290435791,-1.128267526626587,-0.5891404151916504,-0.29906415939331055,-0.7699637413024902,14
-6.688202381134033,18.622400283813477,-2.1272482872009277,-0.3441368341445923,-0.6346125602722168,-1.1257516145706177,14
-6.5493388175964355,18.059463500976562,-3.602674961090088,-0.3531913161277771,-1.070825457572937,-1.5684224367141724,14
-6.345532417297363,17.553987503051758,-4.606443881988525,-0.5715640783309937,-1.2658296823501587,-1.7612296342849731,14
-5.5096564292907715,17.060482025146484,-4.163217544555664,-1.028016448020935,-1.355841875076294,-1.8634920120239258,14
-3.597886562347412,16.952743530273438,-2.227804660797119,-1.2783461809158325,-1.292993187904358,-1.8288719654083252,14
-0.48153382539749146,17.163732528686523,0.7664438486099243,-1.3459885120391846,-0.9733566641807556,-1.687195897102356,14
4.402936935424805,17.757793426513672,3.962104558944702,-1.2788788080215454,-0.8279523849487305,-1.663760781288147,14
11.620556831359863,18.378190994262695,6.994660377502441,-1.2788788080215454,-0.8279523849487305,-1.663760781288147,14
18.603246688842773,18.430864334106445,7.562385559082031,0.16351327300071716,0.05139749497175217,-2.966008186340332,14
22.589292526245117,17.56595802307129,6.647500991821289,0.6279548406600952,0.19307348132133484,-3.801217555999756,14
24.613590240478516,16.071378707885742,4.848557949066162,0.9677641987800598,0.1536598652601242,-4.827569484710693,14
24.498668670654297,15.316606521606445,3.7801451683044434,1.0860050916671753,0.1557903289794922,-5.694669246673584,14
24.323593139648438,15.788562774658203,4.405331134796143,1.1222230195999146,0.3544562757015228,-5.734615325927734,14
27.485734939575195,17.278654098510742,7.4187331199646,1.3778789043426514,0.778419017791748,-5.396403789520264,14
34.31040573120117,17.489343643188477,10.96664047241211,1.8817341327667236,1.070825457572937,-5.07949686050415,14
41.336490631103516,14.866196632385254,12.844593048095703,2.715345621109009,1.0340749025344849,-4.497879981994629,14
50.30038070678711,11.218031883239746,14.803947448730469,3.664468288421631,0.4742949903011322,-3.9855027198791504,14
60.54576873779297,5.9193644523620605,15.659276008605957,4.7159199714660645,-0.4428706169128418,-4.227310657501221,14
63.90663146972656,-1.5523405075073242,12.171523094177246,5.5766282081604,-1.4708870649337769,-5.278162956237793,14
59.261878967285156,-7.924209117889404,6.453271389007568,5.626694202423096,-1.944915771484375,-5.833149433135986,14
51.14822769165039,-12.063484191894531,1.1713632345199585,5.128697395324707,-2.0072319507598877,-6.13201379776001,14
43.298240661621094,-14.008773803710938,-3.2842462062835693,3.888167142868042,-1.3105695247650146,-6.2268195152282715,14
35.42430877685547,-14.140454292297363,-6.32637882232666,2.78458571434021,-0.5094476938247681,-6.159177303314209,14
28.125286102294922,-13.96088981628418,-6.1396307945251465,1.0838745832443237,0.923823356628418,-5.840606212615967,14
22.376209259033203,-14.447211265563965,-2.428917646408081,0.15712186694145203,2.1212117671966553,-5.51570987701416,14
17.285837173461914,-15.556325912475586,1.9186533689498901,-0.12256837636232376,2.925995349884033,-5.2339558601379395,14
12.267291069030762,-16.97189712524414,5.337274074554443,0.05432688444852829,3.5566799640655518,-4.821710586547852,14
7.0500264167785645,-18.203115463256836,7.2032551765441895,0.6679010987281799,3.662137985229492,-4.278974533081055,14
2.227804660797119,-18.744504928588867,7.492953300476074,1.5429900884628296,3.329718589782715,-3.6381702423095703,14
-1.944989562034607,-18.70380210876465,6.034286022186279,2.5949742794036865,2.510021924972534,-2.8477673530578613,14
-5.06643009185791,-19.022531509399414,3.1429882049560547,3.205352783203125,1.6604984998703003,-2.232062578201294,14
-6.503849029541016,-20.423738479614258,-0.5485714673995972,3.411475419998169,0.8748226165771484,-1.7985128164291382,14
-7.564779758453369,-21.966501235961914,-4.522646903991699,3.2319836616516113,0.429555207490921,-1.5870640277862549,14
-8.863334655761719,-23.351247787475586,-8.067861557006836,2.6226701736450195,0.20159535109996796,-1.4256147146224976,14
-10.54256820678711,-24.668657302856445,-10.274118423461914,1.5397943258285522,0.35285845398902893,-1.2594382762908936,14
-13.297396659851074,-25.727493286132812,-10.971428871154785,0.7690982222557068,0.5371437668800354,-1.0352067947387695,14
-16.78754425048828,-26.000431060791016,-10.674248695373535,-0.3116472363471985,0.6644390821456909,-0.3454683721065521,14
-19.796157836914062,-25.547927856445312,-9.931747436523438,-0.9545153379440308,0.5611115097999573,0.40179258584976196,14
-21.477785110473633,-25.126249313354492,-8.951920509338379,-1.6852651834487915,0.21278029680252075,1.6108986139297485,14
-21.058799743652344,-24.568099975585938,-7.351695537567139,-2.4367871284484863,-0.4210333526134491,3.305218458175659,14
-17.599477767944336,-24.249372482299805,-5.0807952880859375,-2.9055562019348145,-0.916366696357727,4.637825012207031,14
-12.022783279418945,-24.546552658081055,-2.5079262256622314,-3.1526901721954346,-1.177947998046875,5.521968364715576,14
-5.2771196365356445,-24.898500442504883,0.047884032130241394,-3.295964241027832,-1.2967214584350586,6.457841873168945,14
2.5585038661956787,-24.733301162719727,2.321178436279297,-3.2032887935638428,-1.157175898551941,6.806705951690674,14
11.27070426940918,-23.98122215270996,3.923797369003296,-2.9529590606689453,-0.86150723695755,6.72042179107666,14
20.406978607177734,-23.25278663635254,4.357447147369385,-2.701564073562622,-0.6340799331665039,6.352384090423584,14
28.343158721923828,-23.576303482055664,2.706944227218628,-2.59397554397583,-0.5754921436309814,6.1116414070129395,14
33.64212417602539,-25.212440490722656,-0.23702596127986908,-2.59397554397583,-0.5754921436309814,6.1116414070129395,14
36.061466217041016,-24.429237365722656,-2.165555477142334,-3.3875741958618164,-1.5161595344543457,5.851191997528076,14
37.702392578125,-19.206884384155273,-0.46238020062446594,-4.445883274078369,-1.1369365453720093,7.048513889312744,14
41.319732666015625,-13.57512378692627,3.5930981636047363,-5.058991432189941,0.03914731368422508,8.09304141998291,14
48.414947509765625,-11.002553939819336,7.038054943084717,-5.847796440124512,2.617610454559326,9.268526077270508,14
57.74066162109375,-11.285069465637207,9.153033256530762,-6.416630744934082,4.338561058044434,9.303678512573242,14
65.73908996582031,-12.274473190307617,11.390414237976074,-6.77614688873291,5.046940803527832,8.274663925170898,14
68.9946060180664,-9.761459350585938,16.104896545410156,-6.691461086273193,4.83762264251709,6.76942253112793,14
63.25510787963867,-3.2339680194854736,22.033538818359375,-5.689076900482178,3.8102054595947266,4.257536888122559,14
51.06682586669922,2.9128456115722656,25.933393478393555,-4.565189361572266,2.7997653484344482,2.9743969440460205,14
38.53856658935547,6.542156219482422,26.09619903564453,-2.6514980792999268,1.1698921918869019,1.83832585811615,14
27.45461082458496,8.209418296813965,22.76436996459961,-1.2309433221817017,0.14993155002593994,1.5246148109436035,14
19.73151397705078,8.685864448547363,17.38399887084961,-0.2546572685241699,-0.4955996572971344,1.5480499267578125,14
13.87230396270752,9.88386344909668,12.583325386047363,0.22902509570121765,-0.785875678062439,1.768020510673523,14
10.695796966552734,10.722132682800293,7.785345554351807,0.44207170605659485,-0.9403344392776489,2.0897209644317627,14
9.759065628051758,11.241973876953125,3.5284547805786133,0.2870802879333496,-0.9179645776748657,2.2830607891082764,14
9.512462615966797,12.013206481933594,0.2346317619085312,-0.15772105753421783,-0.7629731297492981,2.2692127227783203,14
8.813055992126465,13.378799438476562,-1.492485523223877,-0.7707626819610596,-0.509980320930481,2.1041014194488525,14
7.620145320892334,15.072397232055664,-1.633743405342102,-1.3875325918197632,-0.26391148567199707,1.8830657005310059,14
7.076362609863281,16.531064987182617,-0.6371569037437439,-1.5020451545715332,-0.2191716879606247,1.836195468902588,14
7.31578254699707,17.796100616455078,0.7975684404373169,-2.1592938899993896,0.09400681406259537,1.0298140048980713,14
6.8127007484436035,18.70380210876465,1.985990285873413,-2.1560981273651123,0.1744319051504135,0.5503925681114197,14
5.346850872039795,19.61180305480957,2.9319992065429688,-1.9254752397537231,0.22023692727088928,-0.09513862431049347,14
3.0062196254730225,20.5030460357666,3.4326868057250977,-1.4375985860824585,0.07163692265748978,-0.7774204015731812,14
0.8792705535888672,20.81429100036621,3.2411506175994873,-1.0759519338607788,-0.17709499597549438,-1.1582411527633667,14
-0.6060323119163513,20.246566772460938,2.345120668411255,-0.659978449344635,-0.6617760062217712,-1.6765435934066772,14
-1.7630302906036377,19.07280921936035,1.0636241436004639,-0.5614444017410278,-0.9547150731086731,-2.0605602264404297,14
-2.548927068710327,17.86792755126953,0.6371569037437439,-0.6221626400947571,-1.0196943283081055,-2.3044984340667725,14
-2.9391818046569824,16.768390655517578,1.6600795984268188,-0.7350773811340332,-0.8551158308982849,-2.47493577003479,14
-2.726097822189331,15.94658088684082,3.677194595336914,-0.6882070899009705,-0.532882809638977,-2.4062283039093018,14
-1.6959925889968872,15.433921813964844,6.221034049987793,-0.3878113925457001,-0.09933298081159592,-2.1649529933929443,14
0.6658873558044434,14.964658737182617,8.68825912475586,0.050598569214344025,0.16910573840141296,-1.915688395500183,14
4.874894142150879,14.363414764404297,10.22144603729248,0.9427312016487122,0.26391148567199707,-1.7228813171386719,14
10.341156005859375,13.381193161010742,10.468347549438477,1.7581671476364136,0.03488638252019882,-1.9220798015594482,14
15.723919868469238,11.96292781829834,9.835979461669922,2.4980380535125732,-0.4018591642379761,-2.4483048915863037,14
19.659687042236328,10.254964828491211,8.875306129455566,3.6245219707489014,-1.3670268058776855,-3.7207257747650146,14
21.830032348632812,8.642768859863281,8.039131164550781,3.6245219707489014,-1.3670268058776855,-3.7207257747650146,14
23.899818420410156,7.55280876159668,7.873930931091309,3.912134885787964,-1.5316053628921509,-3.866729259490967,14
25.49016761779785,7.275081157684326,7.888296127319336,4.147018909454346,-1.5422576665878296,-3.5987565517425537,14
30.429704666137695,7.018901348114014,8.338705062866211,4.326510429382324,-1.5667580366134644,-2.8094189167022705,14
40.5218620300293,5.36361026763916,8.803479194641113,4.433566570281982,-1.622682809829712,-2.2299320697784424,14
50.791194915771484,1.4326304197311401,8.12053394317627,4.523578643798828,-1.5955193042755127,-2.3646841049194336,14
54.42289733886719,-2.7548282146453857,6.8342485427856445,4.541754245758057,-1.5566383600234985,-2.4530985355377197,14
54.940345764160156,-7.967304706573486,5.150227069854736,4.572113513946533,-1.5023114681243896,-3.4320476055145264,14
53.13661193847656,-13.833996772766113,3.602674961090088,4.427175045013428,-1.7584999799728394,-4.027579307556152,14
48.532264709472656,-17.887081146240234,1.490091323852539,4.028778076171875,-1.792587399482727,-4.762590408325195,14
41.137474060058594,-18.09537696838379,-1.0636241436004639,3.3704638481140137,-1.614693522453308,-5.266445636749268,14
