AccX,AccY,AccZ,GyroX,GyroY,GyroZ,Label
6.043862819671631,-3.2603042125701904,5.162198066711426,-0.0953383520245552,-1.091597557067871,0.29526928067207336,14
6.422146797180176,-3.988440752029419,4.333505153656006,0.06764229387044907,-1.3728855848312378,0.2590513527393341,14
6.398204803466797,-4.28322696685791,2.860173225402832,0.1581871062517166,-1.900175929069519,0.18768073618412018,14
6.254552841186523,-4.228160381317139,1.3174095153808594,0.16617634892463684,-2.4152162075042725,0.13388647139072418,14
6.328773021697998,-4.37420654296875,0.07422025501728058,0.08255556225776672,-3.174727201461792,0.089146688580513,14
6.647500991821289,-4.951508522033691,-0.8577227592468262,-0.08308817446231842,-3.6930296421051025,0.10619042068719864,14
7.358878135681152,-5.684433460235596,-1.4302362203598022,-0.25092896819114685,-4.001947402954102,0.12589722871780396,14
8.439261436462402,-6.568492412567139,-1.7845780849456787,-0.5513246655464172,-4.32311487197876,0.1109839677810669,14
9.332897186279297,-7.54083776473999,-2.031480073928833,-0.8538508415222168,-4.52870512008667,0.09873378276824951,14
9.845556259155273,-8.786720275878906,-2.448071241378784,-1.2277476787567139,-4.643750190734863,0.16104991734027863,14
9.847949981689453,-9.809343338012695,-2.6231472492218018,-1.5606329441070557,-4.675174713134766,0.2915409505367279,14
9.835979461669922,-10.329184532165527,-2.2182278633117676,-2.0841948986053467,-4.8338942527771,0.6686334609985352,14
10.523414611816406,-10.566510200500488,-1.348534107208252,-2.5114200115203857,-5.153464317321777,1.0745538473129272,14
12.116456031799316,-11.05522632598877,-0.5389946699142456,-2.8453705310821533,-5.46291446685791,1.3999824523925781,14
14.389750480651855,-12.20264720916748,0.2298433631658554,-3.600620746612549,-5.86670446395874,2.017285108566284,14
16.54303550720215,-13.278243064880371,1.1306617259979248,-3.665067434310913,-5.864041328430176,2.060959577560425,14
18.665494918823242,-13.48653793334961,3.090315818786621,-3.665067434310913,-5.864041328430176,2.060959577560425,14
20.344728469848633,-13.09837818145752,6.57806921005249,-3.8317763805389404,-5.517241477966309,2.3427138328552246,14
21.245548248291016,-12.573748588562012,11.404779434204102,-3.3641390800476074,-5.475164413452148,2.3858556747436523,14
21.024982452392578,-11.261127471923828,16.337135314941406,-2.4613540172576904,-5.752125263214111,2.4598894119262695,14
19.73390769958496,-9.481337547302246,18.426074981689453,-1.566491723060608,-5.834214687347412,2.6058263778686523,14
18.507478713989258,-8.015189170837402,17.300201416015625,-0.3217669427394867,-5.639743328094482,2.9898428916931152,14
17.781736373901367,-6.070199012756348,15.261539459228516,0.08149032294750214,-5.414978981018066,3.2199997901916504,14
17.784130096435547,-3.360860586166382,13.93934154510498,0.3733641803264618,-5.051734447479248,3.445829153060913,14
18.17438507080078,-0.3618237376213074,12.976273536682129,0.47509393095970154,-4.610195159912109,3.543830633163452,14
18.82859992980957,2.594416856765747,12.126032829284668,0.4362129271030426,-4.0024800300598145,3.4378397464752197,14
19.25237464904785,5.1238908767700195,10.75804615020752,0.18854624032974243,-3.281783103942871,3.1299209594726562,14
18.287212371826172,8.427290916442871,9.356839179992676,-0.2876794934272766,-2.6250669956207275,2.715012550354004,14
16.337135314941406,11.65647029876709,8.039131164550781,-0.7947304248809814,-2.1334619522094727,2.377333879470825,14
14.257770538330078,14.20988655090332,7.605780124664307,-1.4615663290023804,-1.5699537992477417,1.9959803819656372,14
11.194089889526367,17.21161651611328,7.476193904876709,-2.166750431060791,-0.9200950264930725,1.6332684755325317,14
9.02135181427002,18.69662094116211,7.478588104248047,-2.561486005783081,-0.6287537813186646,1.4026455879211426,14
7.105093002319336,19.700389862060547,7.445069313049316,-2.889577627182007,-0.3693695366382599,1.1310111284255981,14
5.428253650665283,20.43810272216797,8.4201078414917,-2.9556221961975098,-0.30705341696739197,1.054847002029419,14
2.90805721282959,21.353286743164062,10.564115524291992,-3.11380934715271,0.1978670358657837,0.06677679717540741,14
0.2059013396501541,22.023962020874023,13.810054779052734,-2.693042278289795,0.5051867365837097,-0.3800884485244751,14
-1.8851345777511597,21.94974136352539,16.828245162963867,-1.879670262336731,0.7390053868293762,-0.6852777004241943,14
-2.6782138347625732,21.300613403320312,18.002002716064453,-0.6008579730987549,0.7864083051681519,-0.9419988989830017,14
-1.9066823720932007,20.157981872558594,17.599477767944336,0.2966673970222473,0.6548519730567932,-1.138001799583435,14
0.004788403399288654,18.133684158325195,16.13123321533203,0.7296846508979797,0.5504591464996338,-1.2493185997009277,14
3.535637378692627,15.156194686889648,14.365808486938477,2.439450263977051,-0.03328853100538254,-1.8315349817276,14
8.245331764221191,12.102090835571289,12.47079849243164,3.1744608879089355,-0.2394111156463623,-2.2762699127197266,14
12.626420974731445,9.455001831054688,10.588057518005371,3.7161319255828857,-0.21384553611278534,-2.773733615875244,14
16.349105834960938,7.7446441650390625,9.119514465332031,4.075648307800293,-0.019440501928329468,-3.232316493988037,14
20.095731735229492,6.755239963531494,8.904036521911621,4.396815776824951,0.13927921652793884,-3.5683975219726562,14
23.988405227661133,7.117063999176025,10.552145004272461,4.726572036743164,0.14140968024730682,-3.629648447036743,14
30.70054817199707,7.45225191116333,12.89487075805664,5.344407081604004,-0.4343487620353699,-3.485841989517212,14
42.10532760620117,4.939537525177002,14.523825645446777,5.802457332611084,-1.0319445133209229,-3.354818344116211,14
56.7847785949707,-0.6826467514038086,16.025888442993164,6.53427267074585,-2.001373052597046,-3.3367092609405518,14
69.93852233886719,-6.1396307945251465,15.354913711547852,6.86349630355835,-2.7315902709960938,-3.654681444168091,14
78.49270629882812,-10.781988143920898,12.240954399108887,6.821352958679199,-3.0074856281280518,-4.2470173835754395,14
78.49270629882812,-15.194501876831055,7.826046943664551,6.334541320800781,-2.7465035915374756,-5.216912269592285,14
78.49270629882812,-21.010616302490234,3.6867713928222656,5.494072437286377,-1.691922903060913,-6.189003944396973,14
75.78815460205078,-27.0377197265625,0.3067570924758911,4.27484655380249,-0.05352795869112015,-7.663818836212158,14
62.687381744384766,-30.384214401245117,-1.8061258792877197,3.3246588706970215,1.2573078870773315,-8.644965171813965,14
46.376583099365234,-30.98785400390625,-1.4733319282531738,2.591778516769409,2.1627559661865234,-8.801554679870605,14
32.43245315551758,-30.101699829101562,1.6528970003128052,2.3196115493774414,2.515880584716797,-8.412145614624023,14
22.143672943115234,-28.292879104614258,6.467936038970947,2.630126953125,2.3177473545074463,-7.229203701019287,14
15.913061141967773,-26.96828842163086,10.983400344848633,3.5126724243164062,1.3340046405792236,-6.0339460372924805,14
13.417106628417969,-27.385177612304688,10.22144603729248,4.454338550567627,0.326227605342865,-5.139150142669678,14
11.469423294067383,-28.122892379760742,7.021295547485352,4.9444122314453125,-0.5531222224235535,-4.62357759475708,14
8.681076049804688,-27.32292938232422,4.172794342041016,5.007793426513672,-1.208839774131775,-4.395084857940674,14
5.193322658538818,-25.528474807739258,2.2804770469665527,4.862389087677002,-1.5065723657608032,-4.3263773918151855,14
1.5092449188232422,-23.8710880279541,0.3306991159915924,4.409066200256348,-1.629074215888977,-4.283768177032471,14
-1.8731635808944702,-22.747610092163086,-1.6098014116287231,3.5174660682678223,-1.4522454738616943,-4.114928722381592,14
-3.080439805984497,-22.852954864501953,-3.2626984119415283,2.73185658454895,-1.2397315502166748,-3.973252534866333,14
-6.283283233642578,-23.789386749267578,-3.4135329723358154,2.73185658454895,-1.2397315502166748,-3.973252534866333,14
-9.617807388305664,-23.815723419189453,-2.991854190826416,-0.21258056163787842,0.655917227268219,-2.6325902938842773,14
-12.420519828796387,-23.32491111755371,-1.5451579093933105,-0.21258056163787842,0.655917227268219,-2.6325902938842773,14
-14.78000545501709,-23.42546844482422,0.4935048222541809,-0.7260228991508484,1.3963208198547363,-1.8038389682769775,14
-16.54782485961914,-24.076990127563477,1.6002246141433716,-0.8101763129234314,1.708966612815857,-1.24612295627594,14
-18.543392181396484,-24.40499496459961,1.3964180946350098,-0.7499906420707703,1.8884583711624146,-0.5451995730400085,14
-20.785560607910156,-24.431631088256836,0.45519760251045227,-0.6221626400947571,1.605639100074768,0.46730440855026245,14
-23.01815414428711,-24.117691040039062,-0.553359866142273,-0.5502594113349915,0.9627043604850769,1.562430500984192,14
-24.175151824951172,-23.62179183959961,-1.1665748357772827,-0.5502594113349915,0.9627043604850769,1.562430500984192,14
-22.615629196166992,-23.332094192504883,-1.2647370100021362,-0.5859447121620178,-0.501458466053009,3.9906957149505615,14
-17.85595703125,-23.62179183959961,-0.4695627987384796,-0.6434673070907593,-1.0362054109573364,5.366976737976074,14
-11.78096866607666,-23.966856002807617,0.8481459617614746,-0.6077820062637329,-0.9840090274810791,6.097260475158691,14
-5.219658851623535,-24.03628921508789,1.535581111907959,-0.5651726722717285,-0.716635525226593,6.413634777069092,14
1.8851345777511597,-23.703195571899414,1.2934675216674805,-0.5555856227874756,-0.15046416223049164,6.392330169677734,14
9.121908187866211,-22.615629196166992,-0.1388636976480484,-0.6019232273101807,0.08708280324935913,6.152652740478516,14
15.443798065185547,-21.09710693359375,-2.409764051437378,-0.8810142874717712,0.41464194655418396,5.345139503479004,14
20.74725341796875,-20.570083618164062,-5.056853294372559,-1.257574200630188,0.5083824396133423,4.768848419189453,14
24.71175193786621,-21.116260528564453,-6.750451564788818,-2.3371877670288086,0.6745588183403015,4.171252727508545,14
27.593473434448242,-21.70313835144043,-6.7480573654174805,-3.118602752685547,0.9089100956916809,4.328374862670898,14
29.55791664123535,-21.317373275756836,-5.095160484313965,-4.1444220542907715,1.5108332633972168,5.3653788566589355,14
34.39659881591797,-20.577266693115234,-1.5523405075073242,-5.098404884338379,2.2841925621032715,7.1539716720581055,14
43.55711364746094,-17.50370979309082,2.2397756576538086,-5.9420695304870605,2.7518298625946045,9.005946159362793,14
55.7379150390625,-11.39280891418457,3.245939016342163,-7.021683216094971,2.8455703258514404,10.211323738098145,14
76.62163543701172,-8.568548202514648,7.778162956237793,-8.113080978393555,2.421607494354248,9.054946899414062,14
78.49270629882812,-6.676231384277344,14.923956871032715,-8.202560424804688,3.0032248497009277,5.727624893188477,14
78.49270629882812,-2.2852654457092285,22.625205993652344,-7.611888885498047,4.151612758636475,2.7064907550811768,14
62.65625762939453,2.1128830909729004,30.324359893798828,-5.933547496795654,4.736425399780273,-0.029626794159412384,14
37.58986282348633,6.216245651245117,33.840843200683594,-2.781989097595215,3.133715867996216,-1.147056221961975,14
21.188085556030273,7.277475357055664,27.52643585205078,-0.38727879524230957,0.9403344392776489,-0.8381386399269104,14
11.419144630432129,8.108562469482422,18.435651779174805,0.8575125932693481,-0.48867565393447876,-0.2858153283596039,14
8.566154479980469,8.4201078414917,10.149619102478027,1.587729811668396,-1.591791033744812,0.37090080976486206,14
8.091803550720215,8.626008987426758,3.5236663818359375,1.3943899869918823,-1.5422576665878296,0.5945997834205627,14
7.248744964599609,8.971074104309082,-1.2791022062301636,0.8820129632949829,-1.1715565919876099,0.6297524571418762,14
4.503493309020996,9.356839179992676,-4.431667327880859,-0.0005326165119186044,-0.585611879825592,0.6792857646942139,14
0.943913996219635,9.613018989562988,-5.8424506187438965,-1.1888666152954102,0.005592473316937685,0.8971925377845764,14
-1.8947113752365112,10.192715644836426,-5.325003623962402,-2.0570316314697266,0.27509641647338867,1.1704248189926147,14
-4.009988784790039,11.368866920471191,-3.2148144245147705,-2.640845775604248,0.39280468225479126,1.4564398527145386,14
-5.492897033691406,13.06246566772461,-0.6754641532897949,-2.8826537132263184,0.40505486726760864,1.7195523977279663,14
-6.412569999694824,15.23520278930664,1.8180968761444092,-2.768673896789551,0.36297816038131714,1.9448492527008057,14
-6.994660377502441,17.721881866455078,4.355052947998047,-2.4314608573913574,0.25752007961273193,2.1003732681274414,14
-6.1396307945251465,19.333776473999023,5.749076843261719,-1.6586344242095947,-0.021038351580500603,2.2175488471984863,14
-3.4302923679351807,20.179529190063477,5.756259441375732,-1.0104401111602783,-0.3150426745414734,2.031665802001953,14
0.6970119476318359,20.603601455688477,5.576694488525391,-0.5731619596481323,-0.6649717092514038,1.613561749458313,14
4.937143325805664,21.602283477783203,5.516839504241943,-0.10758853703737259,-1.1742197275161743,0.5115115642547607,14
8.379406929016113,22.709003448486328,5.368398666381836,0.047402869910001755,-1.4261473417282104,-0.4738289713859558,14
10.616787910461426,22.70660972595215,4.69024133682251,0.04047885537147522,-1.4921917915344238,-1.852839708328247,14
11.127052307128906,20.570083618164062,5.629366874694824,-0.0958709716796875,-0.9382039904594421,-3.297295570373535,14
10.6431245803833,17.721881866455078,8.159140586853027,-0.06977276504039764,-0.22183477878570557,-3.959404468536377,14
9.541193008422852,15.383644104003906,10.600028991699219,0.20718781650066376,0.8354089856147766,-4.424378871917725,14
9.636960983276367,13.362039566040039,11.852794647216797,0.7083799839019775,1.6700856685638428,-4.600674629211426,14
11.11987018585205,11.507730484008789,12.573748588562012,1.496119737625122,2.0823309421539307,-4.647012710571289,14
14.358626365661621,9.900622367858887,13.060070991516113,2.2205448150634766,1.9023064374923706,-4.713057041168213,14
18.684648513793945,8.647557258605957,13.505691528320312,2.9118809700012207,1.4080383777618408,-4.957528114318848,14
22.59168815612793,7.713519096374512,13.400346755981445,3.3624746799468994,0.9904004335403442,-5.25579309463501,14
25.942970275878906,7.085939407348633,14.262558937072754,3.874851703643799,0.49932798743247986,-5.469904899597168,14
29.74226951599121,6.779181957244873,16.42811393737793,4.169388771057129,0.4002613127231598,-5.386284351348877,14
34.9571418762207,6.587646007537842,18.76605224609375,4.534763336181641,0.5360785126686096,-4.985223770141602,14
43.28387451171875,2.7883472442626953,21.4658145904541,5.129762649536133,0.9824111461639404,-4.266724109649658,14
53.0477294921875,-3.2531216144561768,24.438814163208008,5.962775230407715,0.9999874830245972,-3.8635334968566895,14
60.171974182128906,-9.366415977478027,22.788311004638672,6.8826704025268555,0.9509868025779724,-3.7111387252807617,14
64.72095489501953,-17.364845275878906,18.87169647216797,7.603833198547363,0.4726971685886383,-3.9705896377563477,14
60.40211868286133,-24.63992691040039,12.525864601135254,7.750835418701172,0.23248711228370667,-4.0781779289245605,14
47.102325439453125,-25.923816680908203,3.3488895893096924,7.187326908111572,-2.6671438217163086,-4.837689399719238,14
35.6807861328125,-24.10811424255371,-2.5127146244049072,5.986210346221924,-2.9158756732940674,-4.839287281036377,14
26.62322425842285,-21.801301956176758,-5.909787654876709,2.0313994884490967,-0.7549839019775391,-4.233702182769775,14
19.24519157409668,-19.60222625732422,-6.350320816040039,1.6734811067581177,-0.39493513107299805,-4.124515533447266,14
14.394538879394531,-19.18294334411621,-3.1717185974121094,0.4665720760822296,0.9035838842391968,-3.694627523422241,14
10.995370864868164,-19.30504608154297,0.7832032442092896,-0.39952895045280457,1.89857816696167,-3.293034791946411,14
7.543231964111328,-18.888456344604492,3.990834951400757,-0.5438680648803711,2.2873880863189697,-3.051226854324341,14
3.9309799671173096,-18.797176361083984,6.036680221557617,0.14061075448989868,2.324138641357422,-2.910083532333374,14
-0.6874351501464844,-18.296789169311523,5.7323174476623535,0.8436645269393921,1.951839804649353,-2.829658269882202,14
-5.58866548538208,-17.235559463500977,3.3656489849090576,1.7086337804794312,1.0899996757507324,-2.6219379901885986,14
-9.304166793823242,-17.544410705566406,0.5054758191108704,2.5944416522979736,-0.5573831796646118,-2.0797343254089355,14
-11.72350788116455,-19.05126190185547,-2.1535844802856445,2.8239994049072266,-1.192328691482544,-1.8118282556533813,14
-13.992013931274414,-19.54476547241211,-4.69024133682251,2.9560883045196533,-1.9550354480743408,-1.240796685218811,14
-15.750255584716797,-19.520824432373047,-6.941987991333008,2.7643463611602783,-2.037590980529785,-0.7555831074714661,14
-16.91204261779785,-20.08854866027832,-8.825027465820312,2.437852382659912,-1.8879257440567017,-0.39659956097602844,14
-18.363826751708984,-20.60599708557129,-10.571298599243164,1.8614946603775024,-1.6972490549087524,0.10299471765756607,14
-19.623775482177734,-20.62993812561035,-11.675623893737793,1.1483211517333984,-1.6589007377624512,0.746395468711853,14
-21.2239990234375,-20.665851593017578,-11.594221115112305,0.2439383566379547,-1.7510433197021484,1.8926527500152588,14
-20.050241470336914,-20.778379440307617,-10.726921081542969,-0.4799540638923645,-1.8831322193145752,3.000495195388794,14
-16.804304122924805,-21.47060203552246,-8.793902397155762,-0.4799540638923645,-1.8831322193145752,3.000495195388794,14
-12.015600204467773,-22.2948055267334,-6.6594719886779785,-0.6115103363990784,-1.9060347080230713,3.2194671630859375,14
-5.598242282867432,-23.20969009399414,-5.1454386711120605,-1.647982120513916,-1.6269437074661255,5.425564765930176,14
1.2934675216674805,-23.962068557739258,-4.548983097076416,-1.7997777462005615,-1.2913953065872192,5.831485271453857,14
8.71489429473877,-24.15121078491211,-5.166986465454102,-1.9489103555679321,-0.8987903594970703,5.968367576599121,14
17.101184844970703,-24.007558822631836,-6.448482990264893,-2.3062961101531982,-0.4966649115085602,5.7792887687683105,14
25.974096298217773,-24.04107666015625,-7.998429298400879,-3.9398975372314453,0.21384553611278534,5.5203704833984375,14
33.02412033081055,-24.474727630615234,-9.40711784362793,-3.9398975372314453,0.21384553611278534,5.5203704833984375,14
36.114139556884766,-24.134450912475586,-9.210494041442871,-5.257124900817871,1.3148304224014282,6.225621223449707,14
40.033145904541016,-21.5831298828125,-5.20289945602417,-6.577481269836426,2.356095790863037,7.362757682800293,14
48.283267974853516,-15.948974609375,0.7544727921485901,-7.671009540557861,2.619208335876465,8.158553123474121,14
60.631961822509766,-11.440692901611328,5.205293655395508,-8.438509941101074,2.6389150619506836,7.752099990844727,14
72.31237030029297,-10.91366958618164,11.280281066894531,-8.572196006774902,2.9531588554382324,6.386471271514893,14
71.4402847290039,-7.835623741149902,22.148460388183594,-7.368483066558838,3.377121686935425,3.5827114582061768,14
58.480770111083984,-1.3868412971496582,32.01077651977539,-5.032360553741455,2.7140140533447266,1.8266083002090454,14
42.87895584106445,2.3977930545806885,33.529598236083984,-2.8118157386779785,1.5838017463684082,1.070825457572937,14
29.0189208984375,4.51067590713501,28.65470314025879,-0.3611805737018585,-0.0583215095102787,0.8737573623657227,14
19.350536346435547,5.610213279724121,20.251354217529297,1.2154308557510376,-1.2972540855407715,1.2140992879867554,14
14.504672050476074,6.28088903427124,11.630133628845215,1.7475147247314453,-1.746249794960022,1.6785409450531006,14
12.626420974731445,7.445069313049316,4.999392509460449,-0.11557777971029282,-0.34220612049102783,2.181330919265747,14
11.17733097076416,8.877699851989746,0.4671685993671417,-0.568901002407074,-0.023168819025158882,2.158428430557251,14
10.31242561340332,10.106523513793945,-1.326986312866211,-0.568901002407074,-0.023168819025158882,2.158428430557251,14
8.762778282165527,11.620556831359863,-0.43364977836608887,-1.741189956665039,0.7645710110664368,1.975740909576416,14
7.735067367553711,12.91641902923584,2.5417444705963135,-2.316948413848877,1.1954578161239624,1.400515079498291,14
6.125265598297119,14.257770538330078,5.837662220001221,-2.288719654083252,1.2055774927139282,1.3296771049499512,14
3.902249574661255,16.042648315429688,8.441656112670898,-2.017085313796997,1.1752183437347412,1.0559122562408447,14
1.6840215921401978,17.810466766357422,9.874286651611328,-1.3854020833969116,1.0654993057250977,0.7389388084411621,14
-0.34985271096229553,19.465757369995117,10.003573417663574,-0.35851749777793884,0.9121057987213135,0.38208577036857605,14
-2.074575662612915,20.902877807617188,8.731653213500977,0.5523233413696289,0.7672340869903564,0.040678586810827255,14
-3.3704373836517334,21.59510040283203,6.170755386352539,1.1717562675476074,0.5983946323394775,-0.30072858929634094,14
-4.331110954284668,21.575946807861328,2.9607295989990234,1.1717562675476074,0.5983946323394775,-0.30072858929634094,14
-5.392340660095215,21.10907745361328,-0.3283049166202545,1.9211477041244507,-0.16377957165241241,-1.386201024055481,14
-6.530185222625732,20.059818267822266,-3.0229790210723877,0.8649691939353943,-0.8220936059951782,-2.212888479232788,14
-6.731297969818115,18.789993286132812,-4.422090530395508,0.8649691939353943,-0.8220936059951782,-2.212888479232788,14
-6.446088790893555,17.73863983154297,-4.424484729766846,0.6226286888122559,-0.7262226343154907,-2.2192797660827637,14
-4.8509521484375,17.192462921142578,-2.61357045173645,0.2034595012664795,-0.38428282737731934,-2.1830618381500244,14
-1.9835960865020752,16.698957443237305,0.34267011284828186,-0.11184946447610855,0.3480648994445801,-2.086125612258911,14
2.3068132400512695,16.394596099853516,3.224391222000122,-0.08149032294750214,0.8077129125595093,-2.078136444091797,14
8.257302284240723,16.145599365234375,5.900210857391357,0.2332860380411148,1.1427286863327026,-2.311955213546753,14
14.2338285446167,16.136022567749023,8.221389770507812,1.6761441230773926,0.2926727831363678,-4.085102081298828,14
19.48012351989746,15.570691108703613,9.292196273803711,1.6761441230773926,0.2926727831363678,-4.085102081298828,14
23.07561492919922,14.665083885192871,9.483732223510742,1.8353965282440186,0.13555090129375458,-4.370051860809326,14
25.159767150878906,14.252982139587402,10.276512145996094,2.1624231338500977,-0.024766668677330017,-4.760992527008057,14
28.975826263427734,13.92737102508545,12.684181213378906,2.5720717906951904,0.14567062258720398,-4.6683173179626465,14
34.202667236328125,15.738285064697266,16.519094467163086,3.4551498889923096,0.2612484097480774,-3.888033866882324,14
47.03050231933594,14.456788063049316,19.283498764038086,4.373380661010742,-0.19520394504070282,-3.39103627204895,14
63.55677795410156,9.56513500213623,19.05844497680664,5.985145092010498,-0.8364742398262024,-5.197205543518066,14
74.61679077148438,3.80648136138916,16.634315490722656,5.985145092010498,-0.8364742398262024,-5.197205543518066,14
74.71256256103516,-2.2613234519958496,11.385625839233398,6.1651692390441895,-1.1438605785369873,-6.303516387939453,14
66.95355224609375,-7.636904716491699,5.545569896697998,5.825892448425293,-1.3542441129684448,-7.21535587310791,14
55.843257904052734,-11.666047096252441,-0.4671685993671417,4.812323570251465,-1.4186906814575195,-7.5972418785095215,14
44.438480377197266,-12.995427131652832,-6.407781600952148,3.176591396331787,-1.2120354175567627,-7.4470438957214355,14
35.48416519165039,-13.75468921661377,-9.613018989562988,1.1467233896255493,-0.5456656217575073,-6.988461017608643,14
29.203275680541992,-15.206472396850586,-7.699153900146484,1.1467233896255493,-0.5456656217575073,-6.988461017608643,14
23.92376136779785,-16.588825225830078,-2.167949676513672,-1.9323992729187012,2.1286685466766357,-5.931150913238525,14
18.694225311279297,-17.50370979309082,4.644751071929932,-2.1731419563293457,3.431981086730957,-5.480557441711426,14
12.835016250610352,-17.74582290649414,11.922226905822754,0.23754696547985077,3.4958951473236084,-4.104276180267334,14
8.506299018859863,-17.85835075378418,15.295058250427246,0.23754696547985077,3.4958951473236084,-4.104276180267334,14
4.915595531463623,-18.028339385986328,13.254301071166992,2.306828737258911,2.360889196395874,-3.1407063007354736,14
2.321178436279297,-17.827226638793945,10.199897766113281,3.761936902999878,1.2269487380981445,-2.4738705158233643,14
0.982221245765686,-17.963695526123047,6.815094947814941,4.870378494262695,0.17869283258914948,-2.053636074066162,14
0.0454898327589035,-19.029714584350586,2.6063878536224365,5.408321380615234,-0.48175162076950073,-1.8784053325653076,14
-0.7018003463745117,-20.60839080810547,-2.1703438758850098,5.560116767883301,-1.0745538473129272,-1.8336654901504517,14
-1.5188217163085938,-22.18946075439453,-7.296628952026367,5.027500629425049,-1.2514491081237793,-1.9950482845306396,14
-2.70455002784729,-23.633764266967773,-12.185888290405273,3.9408960342407227,-1.201383113861084,-2.312487840652466,14
-4.961085319519043,-24.94638442993164,-16.272491455078125,2.3851232528686523,-0.9424648880958557,-2.651764392852783,14
-8.503905296325684,-26.31197738647461,-18.435651779174805,0.6247591972351074,-0.5967968106269836,-2.8190059661865234,14
-12.67939281463623,-27.622203826904297,-17.894264221191406,-0.7499906420707703,-0.4529903531074524,-2.71301531791687,14
-16.940773010253906,-28.446407318115234,-15.467740058898926,-2.231729745864868,-0.5190348029136658,-2.2112905979156494,14
-22.11972999572754,-28.669069290161133,-12.231377601623535,-3.558011531829834,-0.8119738698005676,-0.8168339729309082,14
-25.95494270324707,-28.132469177246094,-7.969698905944824,-4.092758655548096,-1.0351401567459106,0.5961976051330566,14
-25.751434326171875,-27.123910903930664,-3.0301616191864014,-4.264260768890381,-1.383538007736206,3.0447022914886475,14
-21.537639617919922,-26.105775833129883,0.6826467514038086,-4.028844356536865,-1.5640950202941895,4.603204727172852,14
-14.104541778564453,-25.528474807739258,2.469619035720825,-3.5223262310028076,-1.7292060852050781,6.182479381561279,14
-4.649539470672607,-24.76203155517578,2.881721019744873,-2.9508285522460938,-1.905502200126648,7.162493705749512,14
5.991190433502197,-23.526023864746094,2.592022657394409,-2.4224064350128174,-2.2037672996520996,7.474606990814209,14
17.50131607055664,-21.542428970336914,1.6816273927688599,-1.963291049003601,-2.4556949138641357,6.926544666290283,14
28.748077392578125,-18.955493927001953,0.3570353388786316,-1.8407891988754272,-2.3917810916900635,6.213371276855469,14
36.34906768798828,-16.569671630859375,-1.027711033821106,-2.013356924057007,-2.090320110321045,5.413314342498779,14
37.91337966918945,-13.364434242248535,-0.694617748260498,-2.5321919918060303,-1.5806061029434204,5.420238494873047,14
37.21846389770508,-7.437886714935303,4.179976940155029,-3.0653412342071533,-0.6905373334884644,6.864760875701904,14
42.2968635559082,-1.1857284307479858,12.902053833007812,-2.9705355167388916,-0.48867565393447876,8.284250259399414,14
54.12571716308594,1.9282301664352417,15.022119522094727,-2.67386794090271,-0.11318100988864899,8.786507606506348,14
66.10570526123047,4.4077253341674805,13.42668342590332,-2.593442916870117,0.5003932118415833,8.417405128479004,14
76.16434478759766,7.124246597290039,13.543998718261719,-2.4224064350128174,1.346787452697754,6.451983451843262,14
75.52719116210938,11.352107048034668,13.608642578125,-2.083129644393921,1.7489129304885864,4.116393089294434,14
62.390201568603516,14.480730056762695,12.964303016662598,-1.6357319355010986,1.7483803033828735,2.247907876968384,14
45.43506622314453,15.0077543258667,11.203666687011719,-1.451446533203125,1.6706182956695557,1.7419222593307495,14
30.326753616333008,14.84704303741455,8.702624320983887,-0.8298830986022949,1.047922968864441,0.9643021821975708,14
20.01911735534668,13.898639678955078,5.15740966796875,-0.7638386487960815,0.4183702766895294,1.222621202468872,14
12.835016250610352,13.00739860534668,1.4493898153305054,-0.8554487228393555,0.2937380075454712,1.3728190660476685,14
10.178350448608398,11.752238273620605,-0.7041945457458496,-1.1925950050354004,0.05246272683143616,1.6689538955688477,14
8.99740982055664,11.12226390838623,-2.033874273300171,-1.7374616861343384,0.023168819025158882,1.8116950988769531,14
8.218995094299316,10.738892555236816,-2.723703622817993,-2.1497068405151367,0.09294158220291138,1.7760097980499268,14
6.829460144042969,10.568903923034668,-2.575263261795044,-2.7148795127868652,0.25698745250701904,1.636464238166809,14
4.771644115447998,10.738892555236816,-1.6289550065994263,-2.9801225662231445,0.326227605342865,1.52940833568573,14
2.3331496715545654,11.23718547821045,-0.43843817710876465,-3.121798515319824,0.30971649289131165,1.4340699911117554,14
-0.14844051003456116,12.02038860321045,0.5509656667709351,-3.1494946479797363,0.21331290900707245,1.353644847869873,14
-2.2373814582824707,12.885293960571289,1.514033317565918,-3.1494946479797363,0.21331290900707245,1.353644847869873,14
-3.8208465576171875,13.567940711975098,2.3738510608673096,-2.49224591255188,-0.16218173503875732,1.122489333152771,14
-4.989815711975098,14.013562202453613,2.5103204250335693,-1.9212143421173096,-0.4013265371322632,0.9616391062736511,14
-6.249764442443848,14.317924499511719,1.5236101150512695,-1.3395971059799194,-0.6969286799430847,0.761841356754303,14
-7.49774169921875,14.50946044921875,-0.08379705995321274,-0.8437311053276062,-1.1156318187713623,0.4848807454109192,14
-8.52066421508789,14.24579906463623,-1.9521721601486206,-0.720696747303009,-1.383538007736206,0.26544275879859924,14
-9.347262382507324,13.606247901916504,-3.449446201324463,-0.8208286166191101,-1.4863330125808716,0.12962554395198822,14
-9.790189743041992,12.914024353027344,-4.218583583831787,-1.1638336181640625,-1.432538628578186,0.037482887506484985,14
-8.853757858276367,12.375029563903809,-3.7514147758483887,-1.7023088932037354,-1.0745538473129272,-0.014713531360030174,14
-7.117063999176025,11.989264488220215,-1.8803461790084839,-2.021878957748413,-0.5360785126686096,-0.043474823236465454,14
-4.953902721405029,11.678017616271973,0.7784148454666138,-2.093249559402466,0.1328878253698349,-0.03122464381158352,14
-1.5930418968200684,11.579855918884277,3.624222755432129,-1.8477132320404053,0.7070484161376953,-0.06105116754770279,14
2.431311845779419,11.685200691223145,5.844844818115234,-0.24400493502616882,0.7310161590576172,-0.7012562155723572,14
7.05481481552124,12.231377601623535,7.308599948883057,0.07829462736845016,0.5051867365837097,-0.9095092415809631,14
11.8934965133667,12.454038619995117,8.175899505615234,0.07829462736845016,0.5051867365837097,-0.9095092415809631,14
15.913061141967773,12.741641998291016,8.810662269592285,1.0204932689666748,-0.32995593547821045,-1.6291407346725464,14
19.499277114868164,12.691364288330078,10.516231536865234,1.8748100996017456,-1.0255531072616577,-2.044049024581909,14
22.330718994140625,13.30218505859375,13.992013931274414,2.746237277984619,-1.4804741144180298,-1.9710805416107178,14
26.997018814086914,16.06180191040039,17.252317428588867,4.347815036773682,-1.9257415533065796,-1.2131006717681885,14
40.785526275634766,13.96328353881836,16.155176162719727,5.332157135009766,-2.000840425491333,-0.9579773545265198,14
56.23141860961914,10.274118423461914,11.630133628845215,6.248257637023926,-1.806435465812683,-1.6994460821151733,14
66.63990783691406,7.521683692932129,4.882076740264893,6.22535514831543,-1.8543709516525269,-3.0996949672698975,14
68.68305969238281,4.982633113861084,-1.4757261276245117,5.676759719848633,-1.937991738319397,-4.226245403289795,14
65.97162628173828,0.8816647529602051,-5.507262229919434,4.549743175506592,-1.6471831798553467,-5.359120845794678,14
60.868988037109375,-4.2951979637146,-6.968324184417725,3.219733476638794,-0.9680305123329163,-6.183677673339844,14
52.87055587768555,-8.377012252807617,-7.514501094818115,1.5797405242919922,0.14034445583820343,-6.82441520690918,14
43.64330291748047,-11.32577133178711,-6.848613739013672,0.3616466224193573,1.0527164936065674,-6.978874206542969,14
34.33674240112305,-13.345280647277832,-4.244919776916504,-0.35905009508132935,1.692455530166626,-6.807904243469238,14
26.6785888671875,-14.020744323730469,0.07900865375995636,-0.7723605036735535,2.2138872146606445,-6.336006164550781,14
21.39877700805664,-13.934553146362305,5.411494255065918,-0.4298880994319916,2.263420343399048,-5.617972373962402,14
17.74582290649414,-14.250587463378906,9.577106475830078,0.2679060995578766,2.0455803871154785,-5.129030227661133,14
15.649699211120605,-15.146617889404297,10.494684219360352,1.6511112451553345,1.6423895359039307,-4.547413349151611,14
13.838785171508789,-16.073772430419922,9.107542991638184,2.747302532196045,1.238666296005249,-4.228908538818359,14
11.788151741027832,-16.675016403198242,6.295254230499268,3.420529842376709,0.8343437910079956,-4.065927982330322,14
9.08838939666748,-16.797121047973633,2.9822773933410645,3.967526912689209,0.1664426624774933,-3.9231865406036377,14
6.027103424072266,-16.373046875,-0.028730420395731926,4.015462398529053,-0.3379451632499695,-3.8411636352539062,14
3.078045606613159,-15.975311279296875,-2.519897222518921,3.7118711471557617,-0.6884068250656128,-3.7351064682006836,14
0.795174241065979,-16.102502822875977,-4.3406877517700195,3.1371779441833496,-0.7800168991088867,-3.598223924636841,14
-0.29239189624786377,-17.281047821044922,-5.392340660095215,2.5539627075195312,-0.7155702710151672,-3.5241901874542236,14
-1.3509283065795898,-18.977041244506836,-6.012738227844238,1.5690882205963135,-0.4657731354236603,-3.5625386238098145,14
-3.116652011871338,-20.692188262939453,-6.376657009124756,0.8777520060539246,-0.24633513391017914,-3.6552140712738037,14
-6.039074420928955,-22.34508514404297,-6.261735439300537,-0.12736192345619202,0.09400681406259537,-3.782575845718384,14
-10.235811233520508,-23.8061466217041,-5.559935092926025,-0.8309483528137207,0.35072797536849976,-3.7084755897521973,14
-15.898695945739746,-25.020904541015625,-4.49870491027832,-1.3406623601913452,0.45565342903137207,-3.2440340518951416,14
-21.959318161010742,-25.5886287689209,-3.5404257774353027,-1.6261447668075562,0.3161078989505768,-2.4855880737304688,14
-26.36943817138672,-25.516504287719727,-2.5680806636810303,-1.8615612983703613,-0.11797455698251724,-1.0980554819107056,14
-28.10373878479004,-25.439889907836914,-0.6826467514038086,-1.926007866859436,-0.5738942623138428,0.5365445613861084,14
-27.945720672607422,-24.790761947631836,1.2072762250900269,-1.7321354150772095,-0.8918663263320923,2.70169734954834,14
-23.54757308959961,-23.9141845703125,2.8314428329467773,-1.3854020833969116,-1.0489882230758667,4.2846999168396,14
-17.7937068939209,-23.595457077026367,3.660435199737549,-1.0365383625030518,-1.1257516145706177,5.291345119476318,14
-11.646893501281738,-23.221660614013672,3.2842462062835693,-0.5428028106689453,-1.1625021696090698,6.364634037017822,14
-5.269937038421631,-22.41930389404297,2.299630641937256,-0.21684150397777557,-1.1896655559539795,6.840793132781982,14
0.8577227592468262,-21.727081298828125,0.6587047576904297,-0.06764229387044907,-1.3265479803085327,7.071949005126953,14
6.827065944671631,-21.322162628173828,-1.614589810371399,-0.1928737610578537,-1.5784755945205688,7.285528182983398,14
13.182175636291504,-21.329343795776367,-4.462791919708252,-0.6780874133110046,-1.8586318492889404,7.759024143218994,14
