AccX,AccY,AccZ,GyroX,GyroY,GyroZ,Label
4.577713489532471,-23.07082748413086,-10.724527359008789,0.23062294721603394,-5.714841842651367,5.105994701385498,14
7.004237174987793,-26.36943817138672,-10.877756118774414,-0.6791526079177856,-5.16837739944458,6.257045745849609,14
11.615768432617188,-28.798355102539062,-10.810718536376953,-1.4461203813552856,-5.143344402313232,7.028807163238525,14
19.12787628173828,-30.044239044189453,-9.735123634338379,-2.1081626415252686,-5.418707370758057,7.370746612548828,14
27.92656707763672,-31.107563018798828,-8.015189170837402,-2.6301934719085693,-5.777757167816162,7.340920448303223,14
37.199310302734375,-31.30179214477539,-5.339668273925781,-3.319399356842041,-5.95192289352417,6.979273796081543,14
45.55717086791992,-28.978219985961914,-0.7808090448379517,-4.01339864730835,-5.424033164978027,6.44239616394043,14
51.79735565185547,-25.219623565673828,4.323928356170654,-5.023305892944336,-3.385643482208252,5.7601141929626465,14
55.22046661376953,-20.50783348083496,9.488520622253418,-5.4467363357543945,-2.5217394828796387,5.54440450668335,14
57.359683990478516,-14.02792739868164,15.532383918762207,-5.962308883666992,-1.9566333293914795,4.996275901794434,14
57.51530838012695,-7.131429195404053,21.772571563720703,-5.926623821258545,-2.163821220397949,4.431169509887695,14
57.29983139038086,-2.9774889945983887,27.260679244995117,-5.203863143920898,-2.020547389984131,3.2796528339385986,14
54.643165588378906,-0.4671685993671417,29.97690200805664,-3.940962791442871,-1.4671587944030762,1.8468477725982666,14
48.09412384033203,1.9186533689498901,30.08493995666504,-3.7657318115234375,-1.4485172033309937,1.6993129253387451,14
39.21403121948242,4.194342136383057,28.290485382080078,-3.2432351112365723,-1.468224048614502,1.3216878175735474,14
29.828460693359375,6.352715015411377,24.419361114501953,-2.482658624649048,-1.624280571937561,0.9557803273200989,14
22.105365753173828,8.079832077026367,19.266738891601562,-1.9973784685134888,-1.7334669828414917,0.8582449555397034,14
16.89049530029297,9.081207275390625,14.535797119140625,-1.9696824550628662,-1.6567702293395996,0.8683646321296692,14
13.112743377685547,10.1568021774292,11.21084976196289,-1.9696824550628662,-1.6567702293395996,0.8683646321296692,14
10.425251960754395,11.402385711669922,9.38556957244873,-2.6115520000457764,-1.1300125122070312,0.9930635094642639,14
8.357858657836914,12.6458740234375,8.731653213500977,-3.127657413482666,-0.8359416127204895,1.0159659385681152,14
6.592434406280518,13.711592674255371,9.292196273803711,-3.3923676013946533,-0.6181014776229858,0.9696283340454102,14
5.152621269226074,15.280693054199219,10.805930137634277,-3.534043788909912,-0.375760942697525,0.8161682486534119,14
3.899855375289917,17.077241897583008,12.854169845581055,-3.3119425773620605,-0.12809427082538605,0.44493451714515686,14
2.5848400592803955,18.545785903930664,14.562132835388184,-2.2525017261505127,0.26444411277770996,-0.37263181805610657,14
0.6850409507751465,19.896713256835938,15.532383918762207,-2.2525017261505127,0.26444411277770996,-0.37263181805610657,14
-1.4876971244812012,21.073163986206055,15.534777641296387,-1.4061741828918457,0.4093157947063446,-0.8615737557411194,14
-3.7825393676757812,21.839609146118164,14.607623100280762,-0.35851749777793884,0.30705341696739197,-1.4059078693389893,14
-5.528810501098633,21.968894958496094,12.708123207092285,0.2343512624502182,0.11903978884220123,-1.745251178741455,14
-6.7696051597595215,21.370046615600586,10.207080841064453,0.7264889478683472,-0.09507204592227936,-2.120213270187378,14
-7.567173957824707,20.1962890625,7.802104949951172,0.89692622423172,-0.14939893782138824,-2.399836778640747,14
-8.039131164550781,18.665494918823242,6.357503414154053,0.7254236936569214,-0.020505735650658607,-2.551100015640259,14
-8.00561237335205,17.4630069732666,6.206668853759766,0.6050523519515991,0.07483261823654175,-2.5250017642974854,14
-7.272686958312988,16.36825942993164,7.220014572143555,0.45432189106941223,0.39280468225479126,-2.367879867553711,14
-6.02231502532959,15.247174263000488,9.613018989562988,0.5810846090316772,0.6383408904075623,-2.151637554168701,14
-3.602674961090088,14.717756271362305,12.281656265258789,0.8937305212020874,0.8380720615386963,-1.9822654724121094,14
0.6443395614624023,14.102147102355957,14.842254638671875,1.5286093950271606,1.0441946983337402,-1.9449822902679443,14
6.0103440284729,12.6674222946167,16.274885177612305,2.179466724395752,1.1603050231933594,-2.0738754272460938,14
11.273098945617676,10.631153106689453,16.250944137573242,2.179466724395752,1.1603050231933594,-2.0738754272460938,14
15.71194839477539,8.741230010986328,15.204078674316406,3.9313089847564697,1.099586844444275,-3.0107479095458984,14
19.61180305480957,7.23677396774292,13.893851280212402,4.479371547698975,0.9547150731086731,-3.6360397338867188,14
23.116315841674805,6.0510454177856445,12.758401870727539,4.646146774291992,1.0015853643417358,-4.066993236541748,14
26.230573654174805,4.901230335235596,13.134291648864746,4.690886974334717,1.1043803691864014,-4.245419502258301,14
27.39954376220703,5.329792022705078,14.255375862121582,4.626972675323486,1.1640334129333496,-3.9753830432891846,14
29.6656551361084,6.331167221069336,15.929821014404297,4.291890621185303,1.1576420068740845,-2.63844895362854,14
39.14459991455078,2.8505964279174805,20.98188591003418,4.450077533721924,1.2306770086288452,-1.3382655382156372,14
50.05587387084961,-5.547964096069336,26.213815689086914,5.393407821655273,1.1970555782318115,-0.31830495595932007,14
53.59629821777344,-15.67842960357666,27.126304626464844,6.4415974617004395,0.6415365934371948,0.36131373047828674,14
49.13859558105469,-22.737733840942383,22.67548370361328,7.496244430541992,-0.6836133003234863,1.3887975215911865,14
47.770606994628906,-29.385234832763672,16.353893280029297,7.960153579711914,-2.258094310760498,2.3070285320281982,14
48.29763412475586,-34.727298736572266,9.78061294555664,7.790248870849609,-2.862081289291382,2.2170162200927734,14
49.792510986328125,-38.19589614868164,4.60165548324585,6.997182846069336,-3.1635422706604004,0.7447975873947144,14
44.23736572265625,-35.151371002197266,1.3533225059509277,6.044265270233154,-2.9014949798583984,-0.7928662300109863,14
33.17734909057617,-28.9447021484375,0.20350714027881622,5.010989189147949,-2.5648813247680664,-1.808632493019104,14
26.340707778930664,-26.79829978942871,0.4073135554790497,4.050615310668945,-2.2639529705047607,-2.587850570678711,14
21.77017593383789,-25.61017608642578,0.9343371987342834,3.3864424228668213,-1.8005766868591309,-3.1886417865753174,14
17.62102508544922,-23.993192672729492,2.4145524501800537,2.797901153564453,-0.7677667140960693,-3.9253170490264893,14
12.79431438446045,-22.033538818359375,3.7059249877929688,2.5049619674682617,0.9334104657173157,-4.625707626342773,14
8.06546688079834,-20.567689895629883,3.2172086238861084,2.4490373134613037,2.2335939407348633,-5.007593631744385,14
3.8830959796905518,-20.301633834838867,1.003769040107727,2.405362844467163,3.034649133682251,-5.265913009643555,14
-1.1330559253692627,-20.040664672851562,-1.5379753112792969,2.3483726978302,3.264206886291504,-5.353794574737549,14
-7.121852397918701,-18.70859146118164,-4.2760443687438965,2.205098867416382,3.147563934326172,-5.091747283935547,14
-13.201627731323242,-17.295413970947266,-6.824671745300293,1.8700165748596191,2.567011833190918,-4.494684219360352,14
-17.786523818969727,-16.36107635498047,-8.324339866638184,1.3981183767318726,1.706836223602295,-3.644561529159546,14
-20.14600944519043,-17.182886123657227,-8.183082580566406,0.9395354986190796,0.7390053868293762,-2.6874496936798096,14
-19.762638092041016,-19.07520294189453,-7.040449142456055,0.6700315475463867,-0.05033225938677788,-1.8895902633666992,14
-19.36968994140625,-21.204845428466797,-6.321590423583984,0.6700315475463867,-0.05033225938677788,-1.8895902633666992,14
-20.32557487487793,-22.392969131469727,-6.9731125831604,0.5038552284240723,-0.7187659740447998,-0.7225608825683594,14
-22.59168815612793,-23.286304473876953,-8.458415031433105,0.2641777992248535,-0.9504541754722595,0.041743818670511246,14
-25.159767150878906,-23.98600959777832,-9.421483039855957,-1.175018548965454,-1.9603615999221802,4.936089992523193,14
-25.95973014831543,-24.5800724029541,-8.793902397155762,-1.175018548965454,-1.9603615999221802,4.936089992523193,14
-23.25039291381836,-25.828048706054688,-6.654683589935303,-1.175018548965454,-1.9603615999221802,4.936089992523193,14
-17.99721336364746,-27.70839500427246,-4.1967363357543945,-1.2250845432281494,-1.9486440420150757,5.574763774871826,14
-11.766603469848633,-29.529186248779297,-2.1775264739990234,-1.1744860410690308,-1.8857953548431396,6.165435791015625,14
-5.835268020629883,-31.17729377746582,-1.5523405075073242,-1.1473225355148315,-1.8612949848175049,6.263969421386719,14
-1.4230536222457886,-32.37499237060547,-2.5417444705963135,-0.9257540702819824,-1.6237480640411377,6.604311466217041,14
0.8095394372940063,-34.50673294067383,-4.745307922363281,-1.1313440799713135,-1.5566383600234985,6.95850133895874,14
3.312976598739624,-38.406585693359375,-6.058228015899658,-1.6932544708251953,-1.3654290437698364,7.967343807220459,14
9.823708534240723,-43.118675231933594,-5.250783443450928,-2.4517669677734375,-0.9818785190582275,9.503942489624023,14
20.596420288085938,-47.097537994384766,-3.602674961090088,-2.4517669677734375,-0.9818785190582275,9.503942489624023,14
36.03512954711914,-49.10956573486328,-0.5940613150596619,-4.417654514312744,1.5204204320907593,12.640654563903809,14
55.311744689941406,-47.71793746948242,4.870105743408203,-5.02224063873291,2.9957680702209473,12.568751335144043,14
72.10617065429688,-40.445247650146484,10.418069839477539,-5.272570610046387,3.962001085281372,11.499190330505371,14
78.49270629882812,-31.874305725097656,16.200664520263672,-5.023838520050049,4.478106498718262,8.402491569519043,14
78.49270629882812,-22.460006713867188,22.936752319335938,-3.903146982192993,3.868793249130249,4.995743274688721,14
78.44482421875,-12.588113784790039,26.19705581665039,-2.1827290058135986,2.734786033630371,2.056165933609009,14
61.47501754760742,-7.871536731719971,24.100933074951172,-0.522030770778656,1.4666261672973633,0.1844850480556488,14
43.94976043701172,-5.545569896697998,17.652149200439453,0.5523233413696289,0.6766892671585083,-0.6394727230072021,14
28.22823715209961,-1.559523105621338,9.636960983276367,-0.18009096384048462,1.00052011013031,0.6009911298751831,14
17.467796325683594,3.2148144245147705,2.3092074394226074,-0.39846372604370117,1.0830756425857544,0.7677001357078552,14
13.52005672454834,6.388628005981445,-2.318784236907959,-0.6242931485176086,1.168826937675476,0.9243559837341309,14
15.321394920349121,7.936180114746094,-3.703530788421631,-1.9750086069107056,1.6940534114837646,1.421819806098938,14
18.71337890625,9.131484985351562,-2.8338370323181152,-2.1779356002807617,1.7808698415756226,1.4164936542510986,14
19.84882926940918,10.691008567810059,-0.7975684404373169,-3.3678674697875977,2.463151693344116,0.6744922399520874,14
17.601871490478516,12.537836074829102,1.6864157915115356,-3.6858394145965576,2.7102856636047363,-0.06318163126707077,14
12.609662055969238,15.213655471801758,4.448426723480225,-3.6405670642852783,2.5552942752838135,-0.7625071406364441,14
7.057209014892578,18.493112564086914,7.478588104248047,-3.234713315963745,2.057297945022583,-1.0623701810836792,14
3.0062196254730225,21.183298110961914,9.838373184204102,-2.7090206146240234,1.594454050064087,-1.1465235948562622,14
1.6481086015701294,23.125892639160156,10.549750328063965,-1.8051038980484009,0.962171733379364,-1.2839386463165283,14
2.0147206783294678,24.373870849609375,9.335291862487793,-1.1867361068725586,0.5962641835212708,-1.5907924175262451,14
3.133411407470703,24.872163772583008,7.243956565856934,-0.890601396560669,0.3778914213180542,-1.9886568784713745,14
4.228160381317139,23.827693939208984,5.229235649108887,-0.7776866555213928,0.22609570622444153,-2.6176769733428955,14
3.9094321727752686,21.63849639892578,4.304774761199951,-0.8740902543067932,0.3123795986175537,-3.2120771408081055,14
1.8659809827804565,19.556737899780273,4.874894142150879,-1.0290817022323608,0.7912018299102783,-3.569462776184082,14
-0.033518824726343155,18.26805877685547,6.630741596221924,-0.975820004940033,1.2338727712631226,-3.5359079837799072,14
0.043095629662275314,17.233163833618164,8.825027465820312,-0.6370759010314941,1.4666261672973633,-3.3415029048919678,14
2.594416856765747,16.535852432250977,11.277887344360352,0.035685304552316666,1.4240168333053589,-3.233914375305176,14
6.523002624511719,15.48449993133545,12.64348030090332,0.9038501977920532,1.2077078819274902,-3.3042197227478027,14
11.680412292480469,13.747506141662598,12.775160789489746,1.7997112274169922,0.9456605911254883,-3.639235496520996,14
16.895282745361328,11.318588256835938,11.78096866607666,2.6050939559936523,0.7256900072097778,-4.242756366729736,14
20.752042770385742,8.587701797485352,10.226234436035156,3.218668222427368,0.4647079110145569,-4.939418792724609,14
22.42648696899414,6.125265598297119,9.538799285888672,3.5728580951690674,0.2521939277648926,-5.369772911071777,14
23.034914016723633,4.67827033996582,10.252570152282715,4.01492977142334,0.07536523789167404,-5.51943826675415,14
24.977508544921875,4.136881351470947,11.891101837158203,4.426109790802002,-0.03222329914569855,-5.294674396514893,14
28.745683670043945,2.8098950386047363,13.46020221710205,4.881563663482666,-0.2079867422580719,-4.766851425170898,14
31.64895248413086,-0.8649053573608398,14.808735847473145,5.31298303604126,-0.42689213156700134,-3.7345738410949707,14
39.417537689208984,-3.7992987632751465,15.80292797088623,5.75079345703125,-0.832213282585144,-2.620872735977173,14
50.18276596069336,-9.998785018920898,17.32175064086914,6.527881145477295,-1.0793473720550537,-2.001972198486328,14
54.166419982910156,-20.342334747314453,15.793351173400879,7.456298351287842,-1.446386694908142,-1.5614984035491943,14
51.10273742675781,-29.524396896362305,10.049062728881836,7.918609619140625,-2.313486337661743,-1.0064455270767212,14
46.1201057434082,-34.58364486694336,1.2623428106307983,7.375340461730957,-3.281783103942871,-0.6543859839439392,14
41.55915069580078,-34.32716751098633,-6.05583381652832,5.8610453605651855,-3.7436282634735107,-0.8067142963409424,14
35.47219467163086,-30.159160614013672,-7.888296127319336,4.356337070465088,-3.4538848400115967,-1.13161039352417,14
28.23781394958496,-25.380033493041992,-4.079420566558838,2.3382530212402344,-2.473803997039795,-1.479475498199463,14
23.006183624267578,-22.71858024597168,1.9593547582626343,1.4561735391616821,-1.708966612815857,-1.6392604112625122,14
20.62993812561035,-23.356035232543945,7.598597526550293,1.1121032238006592,-1.1257516145706177,-1.8150238990783691,14
18.313547134399414,-24.539369583129883,10.995370864868164,1.0556459426879883,-0.9376713633537292,-1.8938511610031128,14
14.20988655090332,-24.6973876953125,11.421539306640625,2.0287363529205322,0.6697652339935303,-3.3292527198791504,14
8.690652847290039,-23.748685836791992,9.414299964904785,2.6125504970550537,0.8487244248390198,-3.7638676166534424,14
1.7606360912322998,-21.904253005981445,5.835268020629883,3.196830987930298,0.7390053868293762,-4.114928722381592,14
-4.805461883544922,-19.736303329467773,1.3772644996643066,3.415736198425293,0.2511286735534668,-4.169255256652832,14
-10.037092208862305,-18.734928131103516,-3.3441011905670166,3.078057289123535,-0.12702903151512146,-4.0414276123046875,14
-15.319000244140625,-17.18767547607422,-7.689577102661133,2.4490373134613037,-0.1877473145723343,-3.7793800830841064,14
-17.350481033325195,-16.816274642944336,-11.019312858581543,1.0583089590072632,-0.03328853100538254,-3.573190927505493,14
-18.989011764526367,-18.16241455078125,-12.698546409606934,-0.0005326165119186044,0.43647924065589905,-3.5529515743255615,14
-21.52327537536621,-19.437026977539062,-11.958139419555664,-1.2112364768981934,1.25517737865448,-3.5305817127227783,14
-24.81949234008789,-20.627544403076172,-9.069235801696777,-2.0149548053741455,1.9816663265228271,-3.339905023574829,14
-29.411571502685547,-22.00241470336914,-5.370792865753174,-2.2711434364318848,2.2618227005004883,-2.334857702255249,14
-32.925960540771484,-22.574928283691406,-3.4302923679351807,-2.1411850452423096,1.837859869003296,-1.262634038925171,14
-33.46255874633789,-22.337902069091797,-2.5848400592803955,-1.9712803363800049,1.0505861043930054,0.06251586228609085,14
-29.579463958740234,-22.067058563232422,-2.0889410972595215,-1.727341890335083,-0.2505960762500763,2.097177505493164,14
-23.07561492919922,-22.30198860168457,-1.0660183429718018,-1.5249476432800293,-1.0644340515136719,3.507080078125,14
-15.249567985534668,-22.618022918701172,-0.3833715617656708,-1.350782036781311,-1.5108332633972168,4.9265031814575195,14
-6.122871398925781,-22.89365577697754,-0.7425017952919006,-1.3774129152297974,-1.4533107280731201,5.084690093994141,14
4.218583583831787,-22.711397171020508,-2.211045265197754,-1.626677393913269,-0.9845415949821472,5.076700687408447,14
14.399327278137207,-22.445640563964844,-4.946720123291016,-2.261023759841919,-0.10252867639064789,4.549410343170166,14
24.122480392456055,-21.621736526489258,-7.54083776473999,-3.235778570175171,0.9728240370750427,3.6402342319488525,14
31.011795043945312,-21.75341796875,-9.447818756103516,-4.482100963592529,1.8133594989776611,2.8002312183380127,14
33.879150390625,-22.2205867767334,-9.069235801696777,-5.869101047515869,1.9513071775436401,2.570141077041626,14
34.12126541137695,-21.544822692871094,-5.2555718421936035,-7.1362624168396,1.5108332633972168,3.169334650039673,14
34.8517951965332,-18.725351333618164,2.5632922649383545,-7.930393695831299,0.8577789068222046,4.331037521362305,14
39.61176681518555,-15.3237886428833,12.07814884185791,-8.067808151245117,0.5509917736053467,5.180561065673828,14
48.36945724487305,-12.073360443115234,19.923049926757812,-7.711488246917725,0.7661688327789307,5.6482648849487305,14
58.128822326660156,-9.354445457458496,24.704570770263672,-6.972682476043701,1.4810067415237427,5.101733684539795,14
61.61418151855469,-4.831798076629639,27.418697357177734,-5.927156448364258,2.0258734226226807,3.7856383323669434,14
57.14899444580078,-0.0933738648891449,28.84145164489746,-4.540156364440918,1.8730125427246094,2.140319347381592,14
46.39094924926758,5.452195644378662,29.0189208984375,-2.561486005783081,0.8801487684249878,0.7304169535636902,14
35.318965911865234,8.415319442749023,26.67619514465332,-0.9321454763412476,-0.06790860742330551,0.1104513481259346,14
26.09380531311035,9.761459350585938,21.231182098388672,0.0857512578368187,-0.5153064727783203,-0.12603038549423218,14
19.111116409301758,10.39652156829834,14.825495719909668,0.8559147119522095,-0.7368749380111694,-0.21497733891010284,14
13.889062881469727,10.789170265197754,9.423876762390137,1.1706911325454712,-0.6873416304588318,-0.20432500541210175,14
9.574711799621582,11.697171211242676,5.15740966796875,1.1158316135406494,-0.5680354833602905,-0.1649113893508911,14
5.830479621887207,12.712911605834961,1.4278420209884644,1.1158316135406494,-0.5680354833602905,-0.1649113893508911,14
2.6949732303619385,14.214674949645996,-0.8143278360366821,0.18375270068645477,-0.18029068410396576,0.003928046673536301,14
0.047884032130241394,16.114473342895508,-1.5451579093933105,-0.3436042368412018,-0.1222354918718338,0.05825493112206459,14
-1.7031751871109009,17.98763656616211,-1.1665748357772827,-0.7750235795974731,-0.13608351349830627,0.05612446367740631,14
-2.5632922649383545,19.78418731689453,-0.24660277366638184,-1.005113959312439,-0.12596380710601807,-0.017909230664372444,14
-2.1942858695983887,21.16414451599121,1.1019313335418701,-1.081810712814331,-0.08974587917327881,-0.2091185599565506,14
-1.5834650993347168,21.46341896057129,2.2397756576538086,-0.9012537002563477,-0.08814803510904312,-0.718299925327301,14
-1.391629695892334,21.707927703857422,2.7548282146453857,-0.5902056694030762,-0.28574874997138977,-1.3116347789764404,14
-1.2838906049728394,20.99625015258789,2.1104888916015625,-0.26264652609825134,-0.6287537813186646,-2.099973678588867,14
-1.4972739219665527,19.377172470092773,0.634762704372406,-0.21684150397777557,-0.8013215661048889,-2.7263307571411133,14
-2.5824458599090576,17.649755477905273,-0.8143278360366821,-0.3846156895160675,-0.8263545036315918,-3.116206169128418,14
-4.410119533538818,16.013917922973633,-1.698386788368225,-1.1984537839889526,-0.27616167068481445,-3.3015565872192383,14
-5.8639984130859375,14.990994453430176,-0.6634931564331055,-1.3566408157348633,-0.10199606418609619,-3.219001054763794,14
-5.806537628173828,14.552556037902832,2.007538080215454,-1.5409260988235474,0.23728065192699432,-2.9777257442474365,14
-3.470993995666504,14.406510353088379,4.9060187339782715,-1.4919254779815674,0.5376763939857483,-2.647503614425659,14
1.106719732284546,14.420875549316406,7.2463507652282715,-1.1648988723754883,0.6308842301368713,-2.4903817176818848,14
8.084620475769043,13.881880760192871,8.683470726013184,-0.5342809557914734,0.6841459274291992,-2.803560256958008,14
15.242385864257812,12.86135196685791,10.353126525878906,0.031424373388290405,0.7043853402137756,-3.3660032749176025,14
19.693206787109375,11.419144630432129,11.77857494354248,0.8804150819778442,0.7587122321128845,-4.2725830078125,14
20.586843490600586,10.288483619689941,12.025177001953125,1.7411233186721802,0.8966599106788635,-5.0651164054870605,14
19.985599517822266,9.028534889221191,11.174936294555664,2.601898193359375,1.1613702774047852,-5.529558181762695,14
18.682254791259766,9.500492095947266,10.82747745513916,3.190972089767456,1.2988519668579102,-5.407588958740234,14
19.70757293701172,9.943717956542969,10.13286018371582,3.5643362998962402,1.278612494468689,-5.036355018615723,14
24.58246612548828,9.030928611755371,9.924564361572266,3.9797770977020264,0.9989222884178162,-4.353008270263672,14
27.658117294311523,8.81784439086914,9.311349868774414,4.1331706047058105,0.8412677645683289,-3.682377338409424,14
32.5665283203125,8.5996732711792,9.265859603881836,4.280172824859619,0.9254211783409119,-2.3790647983551025,14
46.32391357421875,5.832873821258545,9.016563415527344,4.4799041748046875,0.924888551235199,-2.1218109130859375,14
57.510520935058594,2.0195090770721436,6.223428249359131,4.659995079040527,0.5488613247871399,-2.735917806625366,14
56.81111526489258,-1.0372878313064575,2.7428572177886963,4.543884754180908,0.14886631071567535,-3.5960934162139893,14
51.47892761230469,-3.640982151031494,-1.8635867834091187,3.7363715171813965,0.017842652276158333,-4.289093971252441,14
40.78791809082031,-5.030517101287842,-5.794566631317139,2.499103307723999,0.4625774323940277,-4.473379611968994,14
30.561386108398438,-5.84963321685791,-6.546944618225098,1.4050424098968506,1.0053136348724365,-4.379106521606445,14
20.49077606201172,-6.6594719886779785,-4.1536407470703125,0.2764279842376709,1.7648913860321045,-3.9247844219207764,14
12.79192066192627,-7.313388347625732,-0.07422025501728058,-0.3329519033432007,2.375802516937256,-3.2110118865966797,14
7.998429298400879,-7.969698905944824,4.244919776916504,-0.29566875100135803,2.642643451690674,-2.446707010269165,14
5.449801445007324,-8.70022964477539,7.605780124664307,0.4788222312927246,2.4386513233184814,-1.6488475799560547,14
4.160823345184326,-9.375992774963379,9.40711784362793,1.503576397895813,2.005634069442749,-1.1534476280212402,14
3.9333741664886475,-10.04188060760498,9.042900085449219,2.62107253074646,1.4660935401916504,-0.9015200138092041,14
3.444657802581787,-10.820295333862305,5.974431037902832,3.4801828861236572,0.9142362475395203,-0.8141708970069885,14
2.3714568614959717,-11.852794647216797,1.7151461839675903,3.888167142868042,0.48814302682876587,-0.7816812992095947,14
1.3557167053222656,-12.583325386047363,-1.8252794742584229,3.9147980213165283,0.29000967741012573,-0.8141708970069885,14
0.5653308629989624,-13.706804275512695,-4.37420654296875,3.6650006771087646,0.2527265250682831,-0.9127049446105957,14
-0.2298433631658554,-14.641141891479492,-6.395810604095459,2.695638656616211,0.3432713449001312,-1.3111021518707275,14
-1.2575544118881226,-15.429133415222168,-7.5866265296936035,2.695638656616211,0.3432713449001312,-1.3111021518707275,14
-2.596811056137085,-16.78036117553711,-8.118139266967773,1.664959192276001,0.03648423030972481,-1.4709537029266357,14
-4.73573112487793,-17.899051666259766,-7.818864345550537,1.664959192276001,0.03648423030972481,-1.4709537029266357,14
-7.457040309906006,-18.3973445892334,-7.318176746368408,1.3171606063842773,-0.26391148567199707,-1.2791451215744019,14
-10.437223434448242,-18.354249954223633,-7.078756809234619,0.7536523938179016,-0.7310161590576172,-0.5681020617485046,14
-12.061090469360352,-17.700332641601562,-6.621164798736572,0.23275341093540192,-1.0164985656738281,0.3330850601196289,14
-11.654075622558594,-17.288230895996094,-6.477512836456299,-0.3531913161277771,-1.0899996757507324,1.345123052597046,14
-9.462183952331543,-16.73726463317871,-5.926547050476074,-0.9529175162315369,-0.9722914695739746,2.3341917991638184,14
-4.8629231452941895,-16.193483352661133,-5.071218490600586,-1.3784781694412231,-0.777353823184967,2.9781253337860107,14
1.1139023303985596,-15.283087730407715,-4.091391563415527,-1.8434523344039917,-0.4519250988960266,3.5651352405548096,14
7.689577102661133,-14.042292594909668,-2.7404630184173584,-1.9766064882278442,-0.3230319023132324,3.665799617767334,14
13.469779014587402,-12.552201271057129,-1.348534107208252,-1.8871269226074219,-0.29906415939331055,3.465003252029419,14
16.708534240722656,-10.743680953979492,-0.5725134611129761,-1.6431884765625,-0.37096738815307617,3.286044120788574,14
17.6425724029541,-8.623615264892578,-0.5461772680282593,-1.4290766716003418,-0.3997286856174469,3.4346442222595215,14
18.78041648864746,-5.979219436645508,-1.5403695106506348,-1.3326730728149414,-0.5105129480361938,4.342222690582275,14
21.542428970336914,-1.6888099908828735,-3.423109769821167,-1.6692867279052734,-0.7544512748718262,5.548665523529053,14
29.7279052734375,3.3728315830230713,-5.672462463378906,-2.2764694690704346,-1.0180964469909668,6.383275508880615,14
42.527008056640625,7.294234752655029,-7.294234752655029,-3.6336429119110107,-1.0750864744186401,6.650116443634033,14
50.34347915649414,10.652701377868652,-5.727529048919678,-5.6853485107421875,0.9584434032440186,4.812522888183594,14
59.31694412231445,11.651681900024414,-0.5892729163169861,-5.6853485107421875,0.9584434032440186,4.812522888183594,14
58.782737731933594,12.98585033416748,7.665635108947754,-5.588412284851074,1.4975179433822632,3.7233223915100098,14
53.613059997558594,15.053243637084961,16.1192626953125,-4.865651607513428,1.4788763523101807,2.5914456844329834,14
44.21821212768555,15.113099098205566,20.98906898498535,-3.389704704284668,0.8833444714546204,1.4154284000396729,14
32.37260055541992,16.23179054260254,20.977096557617188,-1.3284121751785278,0.2926727831363678,0.6414700150489807,14
22.455217361450195,16.05222511291504,17.08203125,0.055924732238054276,-0.015179570764303207,0.46677178144454956,14
15.939397811889648,14.758458137512207,11.464634895324707,0.9725577235221863,-0.1861494779586792,0.4726305902004242,14
11.632528305053711,13.04091739654541,5.825691223144531,1.3720201253890991,-0.29693371057510376,0.5003266334533691,14
8.587701797485352,11.256339073181152,0.8481459617614746,1.4758803844451904,-0.48015379905700684,0.4923373758792877,14
6.424540996551514,9.811738014221191,-2.9104514122009277,1.2852036952972412,-0.6766892671585083,0.4305538833141327,14
4.352658748626709,8.777143478393555,-5.382763862609863,0.7142387628555298,-0.9808133244514465,0.25479042530059814,14
1.437418818473816,8.379406929016113,-6.800729751586914,0.19706811010837555,-1.0596405267715454,0.15572375059127808,14
-1.7965490818023682,8.479963302612305,-7.042843341827393,-0.6573153734207153,-0.993596076965332,0.10832088440656662,14
-4.659116744995117,8.767566680908203,-6.14681339263916,-1.1771490573883057,-0.8370068669319153,0.14879973232746124,14
-6.673837184906006,8.999804496765137,-4.889259338378906,-1.7837992906570435,-0.5898727774620056,0.23082268238067627,14
-8.091803550720215,9.162610054016113,-3.6170401573181152,-2.049042224884033,-0.4849473237991333,0.2723667621612549,14
-9.157821655273438,9.285013198852539,-2.2685060501098633,-2.2162837982177734,-0.4716319143772125,0.29793235659599304,14
-10.051457405090332,9.21288776397705,-1.1522095203399658,-2.222675323486328,-0.5967968106269836,0.30698683857917786,14
-10.602422714233398,9.23682975769043,-0.7377133965492249,-2.185924768447876,-0.7725602388381958,0.30964991450309753,14
-10.772411346435547,9.387964248657227,-1.1953052282333374,-2.2391862869262695,-0.9030513167381287,0.2910083532333374,14
-10.765228271484375,9.74470043182373,-1.7103577852249146,-2.442645788192749,-0.8939968347549438,0.26384490728378296,14
-10.43004035949707,10.207080841064453,-1.7654244899749756,-2.67386794090271,-0.74699467420578,0.25532305240631104,14
-9.65372085571289,10.920851707458496,-1.0660183429718018,-3.2512242794036865,0.25645485520362854,0.3234979510307312,14
-8.23575496673584,11.936592102050781,0.2585737705230713,-3.2512242794036865,0.25645485520362854,0.3234979510307312,14
-5.789778232574463,13.067254066467285,1.9788076877593994,-3.2613439559936523,0.678287148475647,0.3219000995159149,14
-1.7271173000335693,14.073416709899902,4.160823345184326,-3.032851457595825,1.1608376502990723,0.15838684141635895,14
3.4805707931518555,14.787188529968262,6.558915615081787,-3.032851457595825,1.1608376502990723,0.15838684141635895,14
8.652345657348633,14.672266960144043,8.45362663269043,-1.8908551931381226,1.5523773431777954,-0.8306820392608643,14
12.722488403320312,14.073416709899902,9.754277229309082,-0.7649039030075073,1.3659616708755493,-1.8496439456939697,14
15.431528091430664,13.13189697265625,10.173561096191406,0.21038351953029633,1.037803292274475,-2.7630813121795654,14
15.3453369140625,13.038522720336914,10.108918190002441,0.965633749961853,0.854583203792572,-3.3532204627990723,14
13.534421920776367,13.881880760192871,11.158177375793457,2.1592273712158203,0.7437989711761475,-3.714334487915039,14
13.944129943847656,14.8374662399292,12.049118995666504,3.233581304550171,0.6527215242385864,-3.639768123626709,14
13.124714851379395,16.83303451538086,11.5343656539917,4.12411642074585,0.42476168274879456,-2.7849185466766357,14
18.12171173095703,19.30025863647461,11.17733097076416,4.699941158294678,0.08761541545391083,-1.777740716934204,14
33.33536911010742,17.808073043823242,8.734047889709473,5.204329013824463,-0.3139774203300476,-1.154512882232666,14
49.013797760009766,14.91677474975586,6.086958408355713,5.426962852478027,-0.5829487442970276,-1.5508460998535156,14
56.46635055541992,12.806285858154297,2.4839842319488525,5.2677106857299805,-0.5509917736053467,-2.480262041091919,14
56.813507080078125,9.881468772888184,1.2743138074874878,4.794214248657227,-0.2287587970495224,-3.569462776184082,14
52.18312072753906,6.5732808113098145,-0.5437830686569214,3.5771191120147705,0.6058512926101685,-4.355671405792236,14
45.85913848876953,3.511695384979248,-0.9894038438796997,3.5771191120147705,0.6058512926101685,-4.355671405792236,14
39.25233840942383,0.6419453024864197,-2.3068132400512695,2.6514315605163574,1.0969237089157104,-4.641153812408447,14
32.164005279541016,-2.2852654457092285,-2.5369560718536377,2.0324645042419434,1.3936576843261719,-4.782297134399414,14
24.20867156982422,-4.355052947998047,-1.923441767692566,1.2623010873794556,1.8820669651031494,-4.727437496185303,14
16.66783332824707,-5.430647850036621,-0.400130957365036,0.927285373210907,2.164353847503662,-4.442487716674805,14
11.218031883239746,-6.204274654388428,1.5260043144226074,0.9906666874885559,2.332660675048828,-3.1849136352539062,14
8.163928985595703,-7.2248029708862305,3.3273417949676514,0.9906666874885559,2.332660675048828,-3.1849136352539062,14
6.443694591522217,-8.218995094299316,4.438849925994873,1.3134323358535767,2.1579623222351074,-2.7769293785095215,14
5.186140060424805,-8.932766914367676,4.838980674743652,1.9349957704544067,1.813892126083374,-2.292248249053955,14
4.208707332611084,-9.541193008422852,4.326322555541992,2.4628853797912598,1.4964526891708374,-2.0136899948120117,14
3.157353401184082,-10.19032096862793,2.745251417160034,2.8421082496643066,1.1262176036834717,-1.8128935098648071,14
2.100912094116211,-10.796353340148926,0.7113772034645081,3.014676094055176,0.7512555718421936,-1.6589672565460205,14
1.490091323852539,-11.68998908996582,-1.3628993034362793,2.9960343837738037,0.46737098693847656,-1.5694876909255981,14
1.5283985137939453,-13.208810806274414,-3.595492362976074,2.6599533557891846,0.0908111184835434,-1.563096284866333,14
1.6744447946548462,-14.54297924041748,-5.782595634460449,2.227468729019165,-0.09613727778196335,-1.678141474723816,14
1.5882534980773926,-15.683218002319336,-7.411550521850586,1.3299434185028076,-0.23248711228370667,-2.022211790084839,14
1.0085574388504028,-16.991050720214844,-8.048707962036133,0.49693119525909424,-0.15898603200912476,-2.396641254425049,14
-0.9367313981056213,-18.40452766418457,-7.852383136749268,-0.1401447206735611,-0.03648423030972481,-2.6421773433685303,14
-4.460397720336914,-19.37238311767578,-7.0931220054626465,-0.9688960313796997,0.09187635034322739,-2.6837215423583984,14
-8.846575736999512,-19.60701560974121,-6.2306108474731445,-1.526545524597168,0.0002663082559593022,-2.278932809829712,14
-12.604873657226562,-19.135059356689453,-4.98742151260376,-1.8775397539138794,-0.2687050402164459,-1.6696195602416992,14
-14.803947448730469,-18.512266159057617,-3.573944568634033,-2.227468729019165,-0.9062470197677612,-0.4003278911113739,14
-14.866196632385254,-17.80567741394043,-2.1057004928588867,-2.359025001525879,-1.3057760000228882,0.5956649780273438,14
-12.068272590637207,-17.058088302612305,-0.6395511031150818,-2.4085583686828613,-1.6173566579818726,1.8239452838897705,14
-5.626972675323486,-15.7694091796875,0.9510966539382935,-2.316415786743164,-1.7654240131378174,2.7309911251068115,14
3.157353401184082,-14.032715797424316,2.120065689086914,-2.0021719932556152,-1.7185537815093994,3.0441696643829346,14
11.594221115112305,-12.231377601623535,2.3499090671539307,-1.680471658706665,-1.4863330125808716,2.6803925037384033,14
17.37921142578125,-10.896909713745117,1.4446014165878296,-1.4647619724273682,-1.271155834197998,2.2313969135284424,14
18.280029296875,-10.240599632263184,-0.1412578970193863,-1.3656953573226929,-1.2104376554489136,1.9624255895614624,14
14.74409294128418,-8.357858657836914,-1.9569605588912964,-1.5830028057098389,-1.4490498304367065,2.5206077098846436,14
9.86231517791748,-4.163217544555664,-3.0086138248443604,-2.3696775436401367,-1.937991738319397,4.532366752624512,14
10.029909133911133,1.6098014116287231,-1.8372504711151123,-3.0216665267944336,-2.117483615875244,6.335872650146484,14
19.736303329467773,4.692635536193848,0.047884032130241394,-3.7710580825805664,-1.954502820968628,8.295968055725098,14
34.95474624633789,4.973056316375732,1.4613608121871948,-4.590222358703613,-1.047390341758728,9.41978931427002,14
53.3113899230957,5.4665608406066895,4.033930778503418,-5.014784336090088,-0.09187635034322739,8.835508346557617,14
61.118282318115234,7.706336498260498,7.991246700286865,-5.0067949295043945,0.7533860802650452,7.336126804351807,14
