AccX,AccY,AccZ,GyroX,GyroY,GyroZ,Label
0.7185598015785217,2.292448043823242,9.090784072875977,0.19660207629203796,0.05792204663157463,-0.15512455999851227,0
0.574907660484314,2.3953988552093506,8.803479194641113,0.19660207629203796,0.05792204663157463,-0.15512455999851227,0
0.5509656667709351,2.4001872539520264,8.628403663635254,0.19660207629203796,0.05792204663157463,-0.15512455999851227,0
0.6419453024864197,2.364274263381958,8.60925006866455,0.19660207629203796,0.05792204663157463,-0.15512455999851227,0
0.7975684404373169,2.340332269668579,8.765172004699707,-0.06011908873915672,-0.12636326253414154,0.04993279650807381,0
1.003769040107727,2.3594858646392822,9.035717010498047,-0.09686962515115738,-0.11038476973772049,0.07496577501296997,0
1.2312182188034058,2.3762452602386475,9.325715065002441,-0.09953270852565765,-0.09014534205198288,0.07869409024715424,0
1.4541782140731812,2.409764051437378,9.543587684631348,-0.06970618665218353,-0.06244928762316704,0.05792204663157463,0
1.5978304147720337,2.431311845779419,9.660902976989746,-0.0414775125682354,-0.0347532257437706,0.03235645219683647,0
1.657685399055481,2.4456770420074463,9.696816444396973,0.00113181013148278,-0.009720250964164734,-0.008655018173158169,0
1.6313492059707642,2.4384944438934326,9.658509254455566,0.04214328154921532,0.01957365684211254,-0.051264338195323944,0
1.5403695106506348,2.4193408489227295,9.581894874572754,0.06344794481992722,0.029693370684981346,-0.07150376588106155,0
1.3988122940063477,2.428917646408081,9.5531644821167,0.07942643761634827,0.027562905102968216,-0.09227581322193146,0
1.2527660131454468,2.4361002445220947,9.510068893432617,0.09806801378726959,0.03661738336086273,-0.10239552706480026,0
1.149815320968628,2.40736985206604,9.519645690917969,0.11298127472400665,0.03661738336086273,-0.10239552706480026,0
1.0779893398284912,2.3786394596099854,9.519645690917969,0.11937267333269119,0.028628136962652206,-0.098667211830616,0
1.0324994325637817,2.3714568614959717,9.550769805908203,0.11937267333269119,0.028628136962652206,-0.098667211830616,0
0.982221245765686,2.3762452602386475,9.601048469543457,0.1507970541715622,-0.02729659713804722,-0.0768299326300621,0
0.9846154451370239,2.390610456466675,9.636960983276367,0.17902572453022003,-0.05073172226548195,-0.06511236727237701,0
1.0013748407363892,2.4361002445220947,9.62259578704834,0.20086300373077393,-0.06937330216169357,-0.06138405203819275,0
1.0301052331924438,2.474407434463501,9.601048469543457,0.21045009791851044,-0.09706936031579971,-0.06564498692750931,0
1.061229944229126,2.527379274368286,9.660902976989746,0.20938487350940704,-0.12849372625350952,-0.07576470077037811,0
1.0301052331924438,2.551321268081665,9.816526412963867,0.21098271012306213,-0.1620485782623291,-0.08908011019229889,0
0.9846154451370239,2.519897222518921,10.09934139251709,0.22216765582561493,-0.21211452782154083,-0.10399337112903595,0
0.8433575630187988,2.491166830062866,10.525808334350586,0.24347232282161713,-0.30745288729667664,-0.12263495475053787,0
0.6180033087730408,2.495955228805542,10.983400344848633,0.2775597870349884,-0.45392242074012756,-0.1407439112663269,0
0.36421793699264526,2.5007436275482178,11.510124206542969,0.3313540518283844,-0.6366099119186401,-0.15352670848369598,0
0.14604631066322327,2.495955228805542,11.81448745727539,0.40006157755851746,-0.8256887197494507,-0.1529940962791443,0
0.047884032130241394,2.4624364376068115,12.006023406982422,0.4250945448875427,-0.883743941783905,-0.1519288569688797,0
0.1149216815829277,2.4432828426361084,11.991658210754395,0.4250945448875427,-0.883743941783905,-0.1519288569688797,0
0.29957449436187744,2.4863784313201904,11.92940902709961,0.5412049293518066,-0.9535167217254639,-0.20838621258735657,0
0.5940613150596619,2.6039936542510986,11.92940902709961,0.5822164416313171,-0.8901353478431702,-0.25152814388275146,0
0.8262988328933716,2.6734254360198975,11.96292781829834,0.5822164416313171,-0.8901353478431702,-0.25152814388275146,0
1.0492589473724365,2.7165210247039795,11.816882133483887,0.5822164416313171,-0.8901353478431702,-0.25152814388275146,0
1.2336124181747437,2.7380688190460205,11.510124206542969,0.7915347218513489,-0.8613740801811218,-0.5386084318161011,0
1.3844470977783203,2.7380688190460205,10.990582466125488,0.813372015953064,-1.0376701354980469,-0.6818822622299194,0
1.5092449188232422,2.7332804203033447,10.254964828491211,0.7718278765678406,-1.2560428380966187,-0.8358084559440613,0
1.578676700592041,2.7835588455200195,9.421483039855957,0.6408042311668396,-1.5393948554992676,-0.9700278043746948,0
1.55712890625,2.86256742477417,8.798690795898438,0.5001934766769409,-1.8158894777297974,-1.0094414949417114,0
1.3748703002929688,2.975094795227051,8.343493461608887,0.30259275436401367,-2.184460163116455,-1.0003869533538818,0
1.3365631103515625,3.1645359992980957,8.125322341918945,0.14440564811229706,-2.3820607662200928,-0.9252880215644836,0
1.6002246141433716,3.157353401184082,7.952939510345459,0.0543934628367424,-2.394843578338623,-0.7889382243156433,0
3.1453824043273926,3.6122517585754395,8.604461669921875,0.05545869469642639,-2.3889846801757812,-0.6398055553436279,0
2.6758196353912354,2.8051066398620605,8.14956283569336,0.0970027819275856,-2.3144185543060303,-0.5945332050323486,0
2.40736985206604,3.940556764602661,8.298004150390625,0.269570529460907,-1.92720627784729,-0.6121095418930054,0
1.8420389890670776,4.9491143226623535,8.99740982055664,0.8858078122138977,-1.2294120788574219,-0.6733604073524475,0
1.4613608121871948,5.677250862121582,9.308955192565918,1.037070870399475,-1.2075748443603516,-0.6749582886695862,0
1.367687702178955,5.744288444519043,9.002198219299316,1.3822064399719238,-1.3109023571014404,-0.6696321368217468,0
1.2862848043441772,5.595848083496094,8.45362663269043,1.6171568632125854,-1.3923927545547485,-0.6515231728553772,0
1.5164275169372559,5.684433460235596,8.015189170837402,1.871747612953186,-1.3982515335083008,-0.6153052449226379,0
1.7630302906036377,5.868786811828613,7.873930931091309,2.12154483795166,-1.4083712100982666,-0.5583152770996094,0
1.7845780849456787,6.084564208984375,7.576750755310059,2.2839927673339844,-1.3146307468414307,-0.457650750875473,0
2.1104888916015625,6.0965352058410645,6.910863399505615,2.3622872829437256,-1.0525833368301392,-0.3836170434951782,0
2.577657461166382,6.089352607727051,5.887940406799316,1.421087384223938,0.2523270845413208,-0.38148656487464905,0
3.0541036128997803,6.0510454177856445,4.982633113861084,1.3539777994155884,0.2715012729167938,-0.3772256374359131,0
3.4973301887512207,5.8639984130859375,4.096179962158203,1.3539777994155884,0.2715012729167938,-0.3772256374359131,0
3.4374752044677734,5.5575408935546875,3.3656489849090576,1.3539777994155884,0.2715012729167938,-0.3772256374359131,0
3.078045606613159,5.329792022705078,3.0038254261016846,1.1553118228912354,0.32050198316574097,-0.3521926701068878,0
2.7859530448913574,5.193322658538818,2.9535470008850098,0.8543834686279297,0.4131772518157959,-0.3015941083431244,0
2.476801633834839,5.162198066711426,3.200449228286743,0.6029884815216064,0.5687012672424316,-0.29680055379867554,0
2.144007682800293,5.226841449737549,3.988440752029419,0.377159059047699,0.6342130899429321,-0.36976900696754456,0
1.779789686203003,5.2986674308776855,4.939537525177002,0.18648235499858856,0.5884081125259399,-0.4501941204071045,0
1.4062942266464233,5.226841449737549,5.746682643890381,0.04480636492371559,0.5543206334114075,-0.41291093826293945,0
1.058835744857788,5.061641693115234,6.414964199066162,-0.0414775125682354,0.6565830111503601,-0.22969086468219757,0
1.0133458375930786,4.934749126434326,7.215226173400879,-0.05053199082612991,0.7892711162567139,-0.005991935729980469,0
1.4661492109298706,4.956296920776367,7.976881504058838,0.0005991935613565147,1.0012524127960205,0.27789267897605896,0
2.055422067642212,4.944325923919678,8.558971405029297,0.09593755006790161,1.19565749168396,0.5095808506011963,0
2.685396432876587,5.004180908203125,8.908824920654297,0.22962428629398346,1.242527723312378,0.5900059342384338,0
3.576338768005371,5.301061630249023,9.028534889221191,0.2594508230686188,1.2265492677688599,0.5921363830566406,0
4.675876140594482,5.626972675323486,8.920795440673828,0.29247304797172546,1.2009836435317993,0.5926690101623535,0
5.880757808685303,5.8978166580200195,8.573336601257324,0.7409361600875854,0.4243622124195099,0.3391435742378235,0
7.1146697998046875,6.14681339263916,8.161534309387207,0.9475913643836975,0.07869409024715424,0.09893351793289185,0
8.125322341918945,6.304831027984619,7.768586158752441,1.0844738483428955,-0.08481918275356293,-0.1625811904668808,0
9.002198219299316,6.441300392150879,7.471405506134033,1.1696923971176147,-0.17802706360816956,-0.3772256374359131,0
9.469367027282715,6.558915615081787,7.009025573730469,1.2692917585372925,-0.18867939710617065,-0.6371424794197083,0
9.785401344299316,6.685808181762695,6.395810604095459,1.3475863933563232,-0.1742987483739853,-0.8821461200714111,0
9.914987564086914,6.815094947814941,5.696404457092285,1.366760492324829,-0.2366148829460144,-1.1527153253555298,0
10.032303810119629,6.9707183837890625,5.013757705688477,1.3459885120391846,-0.3133116662502289,-1.3188916444778442,0
10.053851127624512,7.059603214263916,4.4292731285095215,1.3017812967300415,-0.44327008724212646,-1.519155502319336,0
9.95329475402832,7.107487201690674,4.017171382904053,1.2447913885116577,-0.5876091718673706,-1.7024420499801636,0
9.648932456970215,7.1146697998046875,3.830423355102539,1.2053776979446411,-0.7468615174293518,-1.8537051677703857,0
9.169792175292969,7.176918983459473,3.741837978363037,1.1915297508239746,-0.8464608192443848,-1.9538371562957764,0
8.590096473693848,7.320570945739746,3.8040871620178223,1.2245519161224365,-0.8938636779785156,-2.0241425037384033,0
7.778162956237793,7.397185325622559,4.0219597816467285,1.3119010925292969,-0.9045159816741943,-2.0603604316711426,0
6.9922661781311035,7.466617107391357,4.345476150512695,1.442392110824585,-0.9955934286117554,-2.0742084980010986,0
6.345532417297363,7.6297221183776855,4.618414878845215,1.442392110824585,-0.9955934286117554,-2.0742084980010986,0
5.8209028244018555,7.7470383644104,4.709394931793213,1.8424537181854248,-1.4456543922424316,-2.0278708934783936,0
5.411494255065918,7.770980358123779,4.355052947998047,2.1060988903045654,-1.7306708097457886,-2.0188162326812744,0
5.354033470153809,7.6536641120910645,3.701136589050293,2.2317962646484375,-2.0236098766326904,-2.039588451385498,0
6.7911529541015625,7.150582790374756,2.208651065826416,2.2041003704071045,-2.520540952682495,-2.129067897796631,0
6.503849029541016,6.316802024841309,1.2312182188034058,2.0672178268432617,-2.894970417022705,-2.221743106842041,0
6.2761006355285645,6.2976484298706055,0.38815996050834656,1.7322020530700684,-3.2848458290100098,-2.38525652885437,0
5.0161519050598145,6.597222805023193,0.6610989570617676,1.3630322217941284,-3.307748317718506,-2.455561876296997,0
3.626616954803467,6.872556209564209,0.9654618501663208,0.9657003283500671,-3.0377116203308105,-2.3730063438415527,0
1.801337480545044,6.980295181274414,1.6050130128860474,0.5859447121620178,-2.474735975265503,-2.1780686378479004,0
0.34027591347694397,7.358878135681152,2.366668462753296,0.2780923843383789,-1.8041718006134033,-1.8883252143859863,0
-0.021547814831137657,7.699153900146484,3.655646800994873,0.10552464425563812,-1.3444572687149048,-1.5601669549942017,0
-0.035913024097681046,7.253533363342285,4.726154327392578,0.04800206422805786,-1.1649655103683472,-1.2560428380966187,0
-0.0071826050989329815,6.695384979248047,5.3226094245910645,0.20192822813987732,-0.9338098764419556,-0.7484593391418457,0
0.3115454912185669,6.582857608795166,5.684433460235596,0.2242981344461441,-0.9370055794715881,-0.7047848105430603,0
0.8960300087928772,6.664260387420654,5.524022102355957,0.3100493848323822,-0.9854736924171448,-0.5519238710403442,0
1.3988122940063477,6.664260387420654,4.752490520477295,0.2892773449420929,-1.0168980360031128,-0.5007926821708679,0
1.5236101150512695,6.611588001251221,3.8232407569885254,0.15292751789093018,-1.0312787294387817,-0.4491288661956787,0
1.6002246141433716,6.475118637084961,3.085228204727173,-0.13521802425384521,-0.9700278043746948,-0.40225863456726074,0
1.6385318040847778,6.352715015411377,2.8960862159729004,-0.35412341356277466,-0.7772206664085388,-0.3772256374359131,0
1.0875661373138428,6.554127216339111,4.49870491027832,-0.5554524660110474,-0.26218047738075256,-0.3234313726425171,0
0.8358756899833679,7.320570945739746,3.7945103645324707,-0.6870087385177612,-0.16790735721588135,-0.24353890120983124,0
0.3761889338493347,6.963535785675049,3.3417069911956787,-0.8516538143157959,-0.05712312087416649,-0.17855969071388245,0
0.22266076505184174,6.716932773590088,3.013402223587036,-1.0849398374557495,-0.13861344754695892,-0.10346075892448425,0
0.400130957365036,7.011419773101807,2.857779026031494,-1.3011821508407593,-0.2248973250389099,-0.0768299326300621,0
0.4216787815093994,7.36127233505249,2.864961624145508,-1.5275441408157349,-0.2776263654232025,-0.09227581322193146,0
0.15562310814857483,7.349301338195801,2.5800516605377197,-1.8385921716690063,-0.24620197713375092,-0.10985215753316879,0
0.7065888047218323,7.742249965667725,2.9104514122009277,-2.0590953826904297,-0.2600499987602234,-0.2169080674648285,0
0.8601169586181641,7.842806339263916,3.221997022628784,-2.2742724418640137,-0.29626792669296265,-0.3836170434951782,0
0.5078700184822083,7.435492515563965,3.4997243881225586,-2.5123519897460938,-0.38095396757125854,-0.5583152770996094,0
0.29239189624786377,7.243956565856934,3.9357683658599854,-2.7104854583740234,-0.5476629137992859,-0.6744256615638733,0
0.08379705995321274,7.555202960968018,4.302380561828613,-2.867074728012085,-0.6174356937408447,-0.7756227850914001,0
0.5677250623703003,7.433098316192627,5.049670696258545,-3.1259262561798096,-0.768166184425354,-0.9572450518608093,0
0.9894038438796997,7.325359344482422,5.720346450805664,-3.312941312789917,-0.8587109446525574,-1.1564435958862305,0
1.2216414213180542,7.1577653884887695,6.5948286056518555,-3.4801828861236572,-1.013702392578125,-1.376414179801941,0
1.2336124181747437,6.738480567932129,7.394791126251221,-3.6197283267974854,-1.1580414772033691,-1.595852255821228,0
1.0109516382217407,6.130053997039795,8.276455879211426,-3.7177298069000244,-1.2091726064682007,-1.8238786458969116,0
0.6443395614624023,5.648520469665527,9.287407875061035,-3.723588705062866,-1.2320750951766968,-2.0225446224212646,0
0.1843535304069519,5.2364182472229,10.357914924621582,-3.630913257598877,-1.2496514320373535,-2.151970386505127,0
-0.6563105583190918,4.520252704620361,10.250176429748535,-3.594162702560425,-0.922624945640564,-2.151970386505127,0
-1.0492589473724365,4.680664539337158,11.558307647705078,-3.4040186405181885,-0.9886693954467773,-2.0230772495269775,0
-1.633743405342102,4.8844709396362305,12.367847442626953,-3.205352783203125,-0.8512543439865112,-1.9293367862701416,0
-1.4876971244812012,4.481945514678955,12.195465087890625,-2.1448466777801514,0.10852061212062836,-1.5857324600219727,0
-1.3198037147521973,4.182371139526367,12.322357177734375,-1.9669528007507324,0.1362166702747345,-1.5159597396850586,0
-1.2862848043441772,4.048295974731445,12.665027618408203,-1.9669528007507324,0.1362166702747345,-1.5159597396850586,0
-1.5714941024780273,4.038719177246094,12.748825073242188,-1.510500431060791,0.20172850787639618,-1.3385984897613525,0
-2.0434510707855225,4.160823345184326,12.854169845581055,-1.0322108268737793,0.232087641954422,-1.1745525598526,0
-2.3546974658966064,4.144063949584961,12.995427131652832,-0.5533219575881958,0.19693495333194733,-1.0009195804595947,0
-2.1966800689697266,4.086603164672852,12.672210693359375,-0.08035851269960403,0.1351514458656311,-0.8118407130241394,0
-2.096123695373535,4.120121955871582,12.425308227539062,0.3627784252166748,0.09946613013744354,-0.6105116605758667,0
-1.921047568321228,4.369418144226074,11.941380500793457,0.7638386487960815,0.14154283702373505,-0.4065195620059967,0
-1.6935983896255493,4.6734819412231445,11.447875022888184,1.0413318872451782,0.19800019264221191,-0.24993029236793518,0
-1.3533225059509277,4.989815711975098,11.002553939819336,1.3257490396499634,0.2427399754524231,-0.06884068250656128,0
-0.9032126069068909,5.219658851623535,10.475530624389648,1.5340687036514282,0.297066867351532,0.08082455396652222,0
-0.7688380479812622,5.55514669418335,9.876680374145508,1.673614263534546,0.4344819188117981,0.2102503627538681,0
-0.1173158809542656,5.36361026763916,9.593865394592285,1.733799934387207,0.5745600461959839,0.3061213493347168,0
0.34745851159095764,5.116708278656006,9.344868659973145,1.7258106470108032,0.766368567943573,0.3513937294483185,0
0.6491279602050781,5.087977886199951,9.188945770263672,1.6613640785217285,1.0870037078857422,0.3487306535243988,0
0.9774328470230103,5.0376996994018555,9.23443603515625,1.5857324600219727,1.3128330707550049,0.32369768619537354,0
1.1857284307479858,5.085583686828613,9.328108787536621,1.5367318391799927,1.4848682880401611,0.29227331280708313,0
1.2431892156600952,5.358821868896484,9.431059837341309,1.535666584968567,1.6760776042938232,0.251261830329895,0
1.2623428106307983,5.6341552734375,9.672874450683594,1.659233570098877,1.7586331367492676,0.19320663809776306,0
1.0564415454864502,5.825691223144531,9.821314811706543,1.8216816186904907,1.7522417306900024,0.15379302203655243,0
0.8577227592468262,5.991190433502197,10.049062728881836,2.1156859397888184,1.672349214553833,0.10479229688644409,0
0.6156091094017029,6.041468620300293,10.16637897491455,2.4799957275390625,1.5434560775756836,0.052063263952732086,0
0.4216787815093994,6.024709224700928,10.049062728881836,2.978524684906006,1.3415944576263428,-0.009187635034322739,0
0.22744916379451752,5.969642639160156,9.843161582946777,3.3225948810577393,1.2004510164260864,-0.044872939586639404,0
0.0694318488240242,5.93133544921875,9.557952880859375,3.759340524673462,1.0257527828216553,-0.09121058136224747,0
0.12928688526153564,5.844844818115234,9.220070838928223,4.270719051361084,0.819097638130188,-0.16737474501132965,0
0.13407529890537262,5.813720226287842,8.705317497253418,4.69148588180542,0.7051177024841309,-0.24620197713375092,0
0.17238251864910126,5.900210857391357,7.979275703430176,5.098937511444092,0.6656374931335449,-0.3346163332462311,0
0.26815059781074524,6.063016414642334,7.061997413635254,5.402529239654541,0.6672353148460388,-0.4091826379299164,0
0.3522469103336334,6.211457252502441,5.998373031616211,5.794002056121826,0.6789528727531433,-0.546065092086792,0
0.46238020062446594,6.323984622955322,4.80785608291626,6.0400710105896,0.6469959020614624,-0.6941324472427368,0
0.4887164235115051,6.434117794036865,3.4374752044677734,6.177020072937012,0.603321373462677,-0.8288844227790833,0
0.5102642178535461,6.609193801879883,2.053027868270874,6.267032146453857,0.5287550687789917,-1.0179632902145386,0
0.4240729808807373,6.721721172332764,0.6754641532897949,6.265966892242432,0.46164536476135254,-1.2176945209503174,0
0.18914192914962769,6.76002836227417,-0.7065888047218323,6.136474609375,0.3711005449295044,-1.4797418117523193,0
-0.033518824726343155,6.625953197479248,-1.9593547582626343,5.938873767852783,0.232087641954422,-1.719485878944397,0
-0.48392802476882935,6.5277910232543945,-3.2794578075408936,5.6619133949279785,0.13728190958499908,-1.950641393661499,0
-1.1665748357772827,6.501454830169678,-4.467580318450928,5.31677770614624,0.06484606117010117,-2.1349267959594727,0
-1.8923171758651733,6.374262809753418,-5.430647850036621,4.999870777130127,0.007856093347072601,-2.2398521900177,0
-2.7572224140167236,6.204274654388428,-6.436511993408203,4.54608154296875,-0.017176883295178413,-2.3032336235046387,0
-3.7083191871643066,6.173149585723877,-7.337330341339111,4.040628433227539,0.012117025442421436,-2.2861897945404053,0
-4.4723687171936035,6.130053997039795,-8.072649955749512,3.356682300567627,0.07283531129360199,-2.146644353866577,0
-4.9275665283203125,6.108506202697754,-8.448838233947754,1.519155502319336,0.31144750118255615,-1.4323389530181885,0
-6.012738227844238,6.204274654388428,-9.244012832641602,1.3896631002426147,0.33115431666374207,-1.3673597574234009,0
-6.369474411010742,6.24737024307251,-9.186552047729492,1.3896631002426147,0.33115431666374207,-1.3673597574234009,0
-6.54455041885376,6.4508771896362305,-8.980650901794434,0.7947304248809814,0.4435364007949829,-1.0541812181472778,0
-6.4631476402282715,6.59004020690918,-8.348281860351562,0.6892723441123962,0.4547213613986969,-0.9929303526878357,0
-6.4293293952941895,6.824671745300293,-7.514501094818115,0.6892723441123962,0.4547213613986969,-0.9929303526878357,0
-6.37186861038208,7.028478145599365,-6.62355899810791,-0.2539914846420288,0.24913136661052704,-0.23022349178791046,0
-6.323984622955322,7.193678379058838,-5.828085422515869,-0.3716997504234314,0.1463363915681839,-0.03155753016471863,0
-6.1611785888671875,7.3564839363098145,-5.279513835906982,-0.45212483406066895,0.05632419511675835,0.22942456603050232,0
-5.984007835388184,7.735067367553711,-4.886865139007568,-0.5069843530654907,-0.03155753016471863,0.5452661514282227,0
-5.603030681610107,8.113350868225098,-4.55616569519043,-0.5378761291503906,-0.09973244369029999,0.7296180725097656,0
-4.925172328948975,8.405742645263672,-4.307168960571289,-0.5378761291503906,-0.09973244369029999,0.7296180725097656,0
-4.072237968444824,8.676287651062012,-4.091391563415527,-0.5378761291503906,-0.09973244369029999,0.7296180725097656,0
-3.312976598739624,9.014169692993164,-3.895066976547241,-0.6598452925682068,-0.2999962568283081,0.9192295074462891,0
-2.793135643005371,9.335291862487793,-3.6843771934509277,-0.712574303150177,-0.33834463357925415,0.8222933411598206,0
-2.491166830062866,9.56513500213623,-3.470993995666504,-0.7748904228210449,-0.3740299344062805,0.6864761114120483,0
-2.318784236907959,9.692028045654297,-3.22678542137146,-0.8394036293029785,-0.3889431953430176,0.5186353325843811,0
-2.4887726306915283,9.809343338012695,-2.9583353996276855,-0.9597749710083008,-0.3090507388114929,0.30079516768455505,0
-2.7859530448913574,9.843161582946777,-2.6063878536224365,-0.9597749710083008,-0.3090507388114929,0.30079516768455505,0
-3.0445268154144287,9.771036148071289,-2.273294448852539,-0.9816122055053711,-0.2904091477394104,0.27895790338516235,0
-3.2339680194854736,9.658509254455566,-1.9306243658065796,-0.9901341199874878,-0.26484355330467224,0.26990342140197754,0
-3.3680431842803955,9.5316162109375,-1.5619173049926758,-0.9837427139282227,-0.22969086468219757,0.27895790338516235,0
-3.3297359943389893,9.433453559875488,-1.2767080068588257,-0.9464595317840576,-0.2057231217622757,0.2938711643218994,0
-3.2315738201141357,9.311349868774414,-1.003769040107727,-0.8772193789482117,-0.17749445140361786,0.30186042189598083,0
-3.078045606613159,9.14345645904541,-0.8191162347793579,-0.8175663352012634,-0.1615159511566162,0.2975994646549225,0
-2.929605007171631,9.033323287963867,-0.7377133965492249,-0.7131069302558899,-0.1423417627811432,0.27949050068855286,0
-2.86256742477417,9.004592895507812,-0.6275801062583923,-0.6369427442550659,-0.14447222650051117,0.25871846079826355,0
-2.793135643005371,8.947132110595703,-0.6227917075157166,-0.574626624584198,-0.151396244764328,0.23794642090797424,0
-2.795529842376709,8.892065048217773,-0.6251859068870544,-0.574626624584198,-0.151396244764328,0.23794642090797424,0
-2.8721442222595215,8.877699851989746,-0.6658873558044434,-0.305655300617218,-0.15565717220306396,0.14793424308300018,0
-2.991854190826416,8.951920509338379,-0.7712322473526001,-0.2316216081380844,-0.13648298382759094,0.1346188187599182,0
-3.140594005584717,9.045293807983398,-0.9175778031349182,-0.16184884309768677,-0.12263495475053787,0.13089050352573395,0
-3.2196028232574463,9.121908187866211,-1.082777738571167,-0.11923952400684357,-0.12476541846990585,0.14473854005336761,0
-3.176506996154785,9.150638580322266,-1.2431892156600952,-0.08888038247823715,-0.12583065032958984,0.15326039493083954,0
-3.111863613128662,9.184157371520996,-1.3940238952636719,-0.08089113235473633,-0.1199718713760376,0.1553908735513687,0
-3.0708630084991455,9.287407875061035,-1.4853029251098633,-0.07929328083992004,-0.10399337112903595,0.1559234857559204,0
-3.0301616191864014,9.364022254943848,-1.554734706878662,-0.08994561433792114,-0.0874822586774826,0.14899946749210358,0
-2.924816608428955,9.392752647399902,-1.5954362154006958,-0.10166317969560623,-0.07629731297492981,0.13142313063144684,0
-2.860173225402832,9.375992774963379,-1.5978304147720337,-0.1155112087726593,-0.06830807030200958,0.10639014840126038,0
-2.8553848266601562,9.38317584991455,-1.5882534980773926,-0.12935923039913177,-0.05232957378029823,0.08455286920070648,0
-2.886509418487549,9.390357971191406,-1.5643115043640137,-0.14160941541194916,-0.03209014609456062,0.06697652488946915,0
-2.9343934059143066,9.392752647399902,-1.5044565200805664,-0.15172912180423737,-0.021437814459204674,0.054193731397390366,0
-2.9367876052856445,9.371204376220703,-1.4446014165878296,-0.15066389739513397,-0.0027962366584688425,0.044606633484363556,0
-2.922422409057617,9.335291862487793,-1.370081901550293,-0.15066389739513397,0.005725627299398184,0.033954303711652756,0
-2.951152801513672,9.328108787536621,-1.3509283065795898,-0.13947895169258118,0.01637795753777027,0.023301972076296806,0
-2.9343934059143066,9.344868659973145,-1.3198037147521973,-0.12083736807107925,0.0185084231197834,0.016910573467612267,0
-2.9631237983703613,9.34965705871582,-1.3150153160095215,-0.10006532818078995,0.009453942999243736,0.013714875094592571,0
-2.9535470008850098,9.330503463745117,-1.3126211166381836,-0.07769543677568436,-0.005459319334477186,0.009986559860408306,0
-2.9176340103149414,9.313743591308594,-1.3221979141235352,-0.05532554164528847,-0.005991935729980469,0.004127778112888336,0
-2.900874614715576,9.311349868774414,-1.3317747116088867,-0.030292565003037453,0.0003994623839389533,-0.0017310036346316338,0
-2.905663013458252,9.28261947631836,-1.3844470977783203,-0.016977151855826378,-0.011318100616335869,-0.010785484686493874,0
-2.905663013458252,9.227252960205078,-1.4110826253890991,-0.007922670803964138,-0.024633513763546944,-0.025698747485876083,0
-2.9415760040283203,9.138668060302734,-1.437418818473816,-0.002063889056444168,-0.026763979345560074,-0.03368799388408661,0
-3.0660746097564697,9.090784072875977,-1.437418818473816,0.015512456186115742,-0.026763979345560074,-0.0347532257437706,0
-3.2172086238861084,9.035717010498047,-1.3988122940063477,0.03628449887037277,-0.04114462435245514,-0.010785484686493874,0
-3.4087445735931396,8.96389102935791,-1.3605051040649414,0.07037195563316345,-0.05818835273385048,0.03448691964149475,0
-3.576338768005371,8.882488250732422,-1.3820528984069824,0.09913324564695358,-0.07469946891069412,0.08721595257520676,0
-3.7083191871643066,8.908824920654297,-1.3844470977783203,0.13748162984848022,-0.09014534205198288,0.1788259893655777,0
-3.674800395965576,8.889671325683594,-1.4733319282531738,0.15931890904903412,-0.10399337112903595,0.2762948274612427,0
-3.7107133865356445,9.169792175292969,-1.7271173000335693,0.14547088742256165,-0.060851436108350754,0.38494858145713806,0
-3.514089584350586,9.450213432312012,-1.9354127645492554,0.09913324564695358,-0.03848154470324516,0.4552539587020874,0
-3.154959201812744,9.629778861999512,-2.36188006401062,-0.013248835690319538,0.005725627299398184,0.5165048837661743,0
-2.491166830062866,9.522039413452148,-2.8505964279174805,-0.2326868325471878,0.14953207969665527,0.520233154296875,0
-2.6255414485931396,10.274118423461914,-3.444657802581787,-0.5171040296554565,0.33381739258766174,0.49147188663482666,0
-2.4361002445220947,10.547356605529785,-4.069843769073486,-0.9017197489738464,0.49466758966445923,0.45844966173171997,0
-2.40736985206604,10.66946029663086,-4.666299343109131,-1.2756165266036987,0.6603113412857056,0.41956865787506104,0
-2.2804770469665527,10.607211112976074,-5.135861873626709,-1.8039721250534058,0.8696961998939514,0.3599156141281128,0
-2.24935245513916,10.4635591506958,-5.485714435577393,-2.3973069190979004,1.0374703407287598,0.2832188308238983,0
-2.1368250846862793,10.379463195800781,-5.603030681610107,-3.0375120639801025,1.1423958539962769,0.2011958807706833,0
-2.0673930644989014,10.130465507507324,-5.452195644378662,-3.832242488861084,1.2148317098617554,0.10159660130739212,0
-2.1057004928588867,9.763854026794434,-5.06643009185791,-4.338760852813721,1.2830065488815308,0.037150003015995026,0
-2.2038626670837402,9.251194953918457,-4.417302131652832,-4.926236629486084,1.4097692966461182,-0.027829213067889214,0
-2.680608034133911,8.75080680847168,-3.451840400695801,-5.528692722320557,1.525347113609314,-0.08481918275356293,0
-3.140594005584717,8.226178169250488,-2.4241292476654053,-5.857316970825195,1.5583692789077759,-0.08854749798774719,0
-3.660435199737549,7.706336498260498,-1.4422072172164917,-6.169430255889893,1.5977829694747925,-0.05659050494432449,0
-4.069843769073486,7.349301338195801,-0.5701192617416382,-6.3984551429748535,1.599913477897644,0.024367205798625946,0
-4.393360137939453,7.095516204833984,0.11971008777618408,-6.579012393951416,1.615891933441162,0.18255430459976196,0
-4.496310710906982,6.831854343414307,0.6539163589477539,-6.669024467468262,1.669686198234558,0.3386109471321106,0
-4.347870349884033,6.618770599365234,1.224035620689392,-6.732938289642334,1.6499793529510498,0.4531235098838806,0
-4.218583583831787,6.285677433013916,1.5858592987060547,-6.820820331573486,1.5945872068405151,0.5873428583145142,0
-4.017171382904053,5.50007963180542,1.9282301664352417,-6.873549461364746,1.6217507123947144,0.6534538865089417,0
-3.8447885513305664,4.28322696685791,2.4576480388641357,-6.873549461364746,1.6217507123947144,0.6534538865089417,0
-3.9764697551727295,3.095104217529297,3.1860837936401367,-7.101509094238281,1.488063931465149,0.804716944694519,0
-4.15603494644165,2.2469582557678223,3.875913381576538,-7.144118309020996,1.457172155380249,0.8297499418258667,0
-3.990834951400757,1.6193782091140747,4.771644115447998,-7.152640342712402,1.3410618305206299,0.8563807606697083,0
-3.7585973739624023,1.104325532913208,5.629366874694824,-7.099911212921143,1.2137664556503296,0.8941965699195862,0
-3.658041000366211,0.7664438486099243,6.3407440185546875,-6.981670379638672,1.134406566619873,0.9362732768058777,0
-3.5667619705200195,0.4456208050251007,7.026083946228027,-6.798983097076416,1.0710252523422241,0.9794151782989502,0
-3.50930118560791,0.14844051003456116,7.8092875480651855,-6.575816631317139,0.9378710985183716,1.0151004791259766,0
-3.4398694038391113,-0.16519992053508759,8.386589050292969,-6.357443809509277,0.8680983185768127,1.0188288688659668,0
-3.339312791824341,-0.5342062711715698,8.863334655761719,-5.976623058319092,0.7775535583496094,0.9778173565864563,0
-3.1932666301727295,-0.9247604012489319,9.380781173706055,-5.617106914520264,0.6097127795219421,0.9192295074462891,0
-3.1310172080993652,-1.1569979190826416,9.86231517791748,-5.231958389282227,0.3806876540184021,0.8398696780204773,0
-3.200449228286743,-1.204882025718689,10.13525390625,-4.823441505432129,0.1580539494752884,0.7557162642478943,0
-3.2100260257720947,-1.14742112159729,10.39412784576416,-4.397348403930664,-0.07416684925556183,0.6614431142807007,0
-3.095104217529297,-1.204882025718689,10.705373764038086,-4.0676589012146,-0.2605826258659363,0.5798861980438232,0
-2.8936920166015625,-1.324592113494873,10.820295333862305,-3.659142017364502,-0.4416722357273102,0.47283029556274414,0
-2.747645616531372,-1.4948797225952148,10.79156494140625,-3.265538454055786,-0.5423367619514465,0.3609808385372162,0
-2.575263261795044,-1.734299898147583,10.959458351135254,-2.828726291656494,-0.6222292184829712,0.1995980441570282,0
-2.275688648223877,-2.0003554821014404,11.182119369506836,-2.5554940700531006,-0.6525883674621582,0.07656362652778625,0
-2.1344308853149414,-2.227804660797119,11.378443717956543,-2.154966354370117,-0.6573819518089294,-0.09280842542648315,0
-2.167949676513672,-2.3307554721832275,11.625345230102539,-1.819417953491211,-0.6520557403564453,-0.2057231217622757,0
-2.2613234519958496,-2.2876596450805664,11.862371444702148,-1.473217248916626,-0.6690995097160339,-0.2877460718154907,0
-2.4361002445220947,-2.211045265197754,12.149974822998047,-1.1914631128311157,-0.6914693713188171,-0.3234313726425171,0
-2.570474863052368,-2.0410568714141846,12.434885025024414,-0.8244903683662415,-0.6941324472427368,-0.33674678206443787,0
-2.795529842376709,-1.8348562717437744,12.595296859741211,-0.3807542324066162,-0.6738930344581604,-0.312779039144516,0
-2.9367876052856445,-1.63613760471344,12.641085624694824,-0.021770700812339783,-0.6792191863059998,-0.26218047738075256,0
-3.085228204727173,-1.4685434103012085,12.516287803649902,0.2882121205329895,-0.7426005601882935,-0.1940055638551712,0
-3.1262288093566895,-1.346139907836914,12.149974822998047,0.5390744805335999,-0.8134385943412781,-0.11890663951635361,0
-3.0684688091278076,-1.2814964056015015,11.65647029876709,0.6786200404167175,-0.8480586409568787,-0.058720968663692474,0
-2.9846715927124023,-1.2814964056015015,11.148600578308105,0.784078061580658,-0.8443303108215332,0.008921326138079166,0
-2.726097822189331,-1.2910733222961426,10.798747062683105,0.8096436858177185,-0.8054493069648743,0.06218297779560089,0
-2.40736985206604,-1.2767080068588257,10.547356605529785,0.7760888338088989,-0.7330134510993958,0.09520520269870758,0
-2.1799206733703613,-1.1593921184539795,10.204686164855957,0.6823483109474182,-0.5652392506599426,0.12343387305736542,0
-2.053027868270874,-1.058835744857788,9.931747436523438,0.5832816362380981,-0.42462852597236633,0.14314068853855133,0
-1.9931728839874268,-0.9534908533096313,9.787796020507812,0.4927368462085724,-0.3442034125328064,0.1474016159772873,0
-1.9042881727218628,-0.8553285598754883,9.739912033081055,0.3718329071998596,-0.26218047738075256,0.13781452178955078,0
-1.8587983846664429,-0.7281365990638733,9.706393241882324,0.29513612389564514,-0.19826649129390717,0.1362166702747345,0
-1.8396447896957397,-0.553359866142273,9.720758438110352,0.25199419260025024,-0.15459194779396057,0.14260807633399963,0
-1.8252794742584229,-0.43843817710876465,9.773430824279785,0.23228737711906433,-0.1316894292831421,0.1468690037727356,0
-1.7223289012908936,-0.3594295382499695,9.831191062927246,0.26477697491645813,-0.12316756695508957,0.13941237330436707,0
-1.614589810371399,-0.2852092683315277,9.794978141784668,0.27436408400535583,-0.12210233509540558,0.13834713399410248,0
-1.5475521087646484,-0.17956513166427612,9.735123634338379,0.3084515333175659,-0.11837401986122131,0.12929265201091766,0
-1.55712890625,-0.05027823522686958,9.610625267028809,0.35372394323349,-0.12370018661022186,0.11650986224412918,0
-1.5882534980773926,-0.002394201699644327,9.447818756103516,0.3824852406978607,-0.1412765234708786,0.1138467788696289,0
-1.6648679971694946,0.026336219161748886,9.325715065002441,0.3942027986049652,-0.15618979930877686,0.11757509410381317,0
-1.7031751871109009,0.06703764945268631,9.21288776397705,0.3878113925457001,-0.1529940962791443,0.12077079713344574,0
-1.6959925889968872,0.10295066982507706,9.071630477905273,0.35958272218704224,-0.13435252010822296,0.13089050352573395,0
-1.6696563959121704,0.13168109953403473,8.990227699279785,0.31590816378593445,-0.1199718713760376,0.13248835504055023,0
-1.657685399055481,0.13168109953403473,8.96389102935791,0.25252678990364075,-0.11571093648672104,0.12343387305736542,0
