AccX,AccY,AccZ,GyroX,GyroY,GyroZ,Label
1.125873327255249,0.9103952050209045,9.737517356872559,-0.22523020207881927,-0.1732335239648819,-0.03794892504811287,0
1.128267526626587,0.7975684404373169,9.696816444396973,-0.20605601370334625,-0.19933173060417175,-0.034220609813928604,0
1.2168530225753784,0.6299743056297302,9.644144058227539,-0.20552340149879456,-0.1716356724500656,-0.025698747485876083,0
1.2862848043441772,0.5366004705429077,9.651326179504395,-0.2209692746400833,-0.1194392517209053,-0.02197043038904667,0
1.3844470977783203,0.5366004705429077,9.703998565673828,-0.23854562640190125,-0.08375394344329834,-0.02942706272006035,0
1.490091323852539,0.553359866142273,9.874286651611328,-0.26198074221611023,-0.06884068250656128,-0.04860125854611397,0
1.6169840097427368,0.5988497138023376,10.029909133911133,-0.27955707907676697,-0.07523208111524582,-0.0778951644897461,0
1.7654244899749756,0.6060323119163513,10.123283386230469,-0.30032914876937866,-0.08268871158361435,-0.12263495475053787,0
1.9354127645492554,0.5461772680282593,10.175955772399902,-0.32376426458358765,-0.09760197252035141,-0.19666863977909088,0
1.9545663595199585,0.5246294736862183,10.154407501220703,-0.3312208950519562,-0.07097115367650986,-0.2472672164440155,0
1.9764134883880615,0.5030816197395325,10.128071784973145,-0.32216641306877136,-0.008655018173158169,-0.30745288729667664,0
1.9692308902740479,0.4671685993671417,10.13525390625,-0.3152424097061157,0.050998032093048096,-0.3532578945159912,0
2.0027496814727783,0.5246294736862183,10.171167373657227,-0.30192697048187256,0.1255643367767334,-0.4070521593093872,0
2.1080946922302246,0.5940613150596619,10.19032096862793,-0.2992638945579529,0.19586972892284393,-0.4406070113182068,0
2.340332269668579,0.6706757545471191,10.322002410888672,-0.29287251830101013,0.26031631231307983,-0.4842815697193146,0
2.5246856212615967,0.7808090448379517,10.537779808044434,-0.28222018480300903,0.316241055727005,-0.546065092086792,0
2.821866035461426,0.9894038438796997,10.746074676513672,-0.23534992337226868,0.34287187457084656,-0.6520557403564453,0
2.8960862159729004,1.1522095203399658,10.851420402526855,-0.16238145530223846,0.404655396938324,-0.7617747783660889,0
2.884115219116211,1.1378443241119385,10.990582466125488,-0.07130403816699982,0.4675041437149048,-0.8741568326950073,0
2.814683437347412,1.0708067417144775,11.0887451171875,0.01924077235162258,0.5149070024490356,-0.9657669067382812,0
2.7644052505493164,0.9199720025062561,11.1102933883667,0.1614493727684021,0.5649729371070862,-1.0802794694900513,0
2.752434015274048,0.8191162347793579,11.016919136047363,0.2770271599292755,0.6326152682304382,-1.1756178140640259,0
2.615964651107788,0.735319197177887,10.724527359008789,0.3723655045032501,0.7919341921806335,-1.2704235315322876,0
2.4839842319488525,0.6826467514038086,10.290877342224121,0.43042072653770447,0.996458888053894,-1.3652292490005493,0
2.3355438709259033,0.591667115688324,9.960477828979492,0.45332321524620056,1.1983206272125244,-1.4690895080566406,0
2.05781626701355,0.5222352743148804,9.687239646911621,0.44480136036872864,1.3383986949920654,-1.5564385652542114,0
1.679233193397522,0.4887164235115051,9.62020206451416,0.40219205617904663,1.4326717853546143,-1.658700942993164,0
1.104325532913208,0.5006874203681946,9.56274127960205,0.3542565703392029,1.4800747632980347,-1.7375948429107666,0
0.43604397773742676,0.5054758191108704,9.392752647399902,0.34626731276512146,1.5051076412200928,-1.7482471466064453,0
-0.19153612852096558,0.4456208050251007,9.208099365234375,0.3510608673095703,1.516292691230774,-1.7083008289337158,0
-0.7161656022071838,0.29718029499053955,8.935160636901855,0.35958272218704224,1.4933900833129883,-1.6315375566482544,0
-1.0516531467437744,0.11971008777618408,8.693047523498535,0.35638701915740967,1.4284108877182007,-1.5069053173065186,0
-1.3341689109802246,-0.004788403399288654,8.587701797485352,0.33508235216140747,1.342659592628479,-1.4057080745697021,0
-1.5834650993347168,-0.028730420395731926,8.45123291015625,0.3073863089084625,1.2824740409851074,-1.3311418294906616,0
-1.9162591695785522,-0.033518824726343155,8.324339866638184,0.3073863089084625,1.2824740409851074,-1.3311418294906616,0
-2.278082847595215,-0.026336219161748886,8.242937088012695,0.213645800948143,1.0816775560379028,-1.1782808303833008,0
-2.683002233505249,-0.043095629662275314,8.185476303100586,0.018175538629293442,0.7136395573616028,-1.0073109865188599,0
-3.095104217529297,-0.11013327538967133,8.079832077026367,0.008588441647589207,0.6901378631591797,-0.9945281744003296,0
-3.4997243881225586,-0.22505496442317963,7.979275703430176,0.008588441647589207,0.6901378631591797,-0.9945281744003296,0
-3.849576950073242,-0.3737947344779968,8.082226753234863,-0.05319507420063019,0.5617772936820984,-0.9481905698776245,0
-4.184765338897705,-0.48632222414016724,8.26927375793457,-0.06331478804349899,0.5244941115379333,-0.9370055794715881,0
-4.4292731285095215,-0.6180033087730408,8.491933822631836,-0.06331478804349899,0.5244941115379333,-0.9370055794715881,0
-4.786308288574219,-0.7041945457458496,8.736441612243652,-0.15492482483386993,-0.15991811454296112,-0.8166342377662659,0
-5.064035892486572,-0.7784148454666138,9.047688484191895,-0.116043820977211,-0.41450878977775574,-0.7665683031082153,0
-5.217264652252197,-0.9056068062782288,9.361627578735352,-0.03987966105341911,-0.6733604073524475,-0.6978607773780823,0
-5.3995232582092285,-0.8888474106788635,9.711181640625,0.022436469793319702,-0.8176994919776917,-0.631283700466156,0
-5.241206645965576,-1.1186907291412354,9.938929557800293,0.2141784131526947,-1.113834261894226,-0.4603138267993927,0
-5.001786708831787,-1.1306617259979248,10.154407501220703,0.40112680196762085,-1.3183590173721313,-0.28508299589157104,0
-4.829403877258301,-0.9271546006202698,10.420463562011719,0.5902056694030762,-1.488796353340149,-0.10772168636322021,0
-4.410119533538818,-0.8672995567321777,10.532991409301758,0.8400028347969055,-1.6864635944366455,0.1143793985247612,0
-4.002806186676025,-0.8071452379226685,10.497077941894531,1.1025828123092651,-1.8515747785568237,0.3306216895580292,0
-3.4590229988098145,-0.735319197177887,10.322002410888672,1.320422887802124,-1.803106665611267,0.5335485935211182,0
-2.551321268081665,-0.4192845821380615,10.204686164855957,1.4993820190429688,-1.8553030490875244,0.6976610422134399,0
-1.8420389890670776,0.06224924325942993,10.116100311279297,1.6017110347747803,-1.936793327331543,0.7844775319099426,0
-1.2551602125167847,0.5868787169456482,9.936535835266113,1.6017110347747803,-1.936793327331543,0.7844775319099426,0
-0.591667115688324,1.0181342363357544,9.663297653198242,1.979336142539978,-2.1695468425750732,1.0353399515151978,0
0.16519992053508759,1.3317747116088867,9.44303035736084,2.1188817024230957,-2.2148191928863525,1.0726231336593628,0
0.8481459617614746,1.6840215921401978,9.030928611755371,2.155632257461548,-2.188188314437866,1.0854058265686035,0
1.4972739219665527,2.0482394695281982,8.858546257019043,2.1396536827087402,-2.1738076210021973,1.0848731994628906,0
2.0171148777008057,2.383427858352661,8.793902397155762,2.1050336360931396,-2.1738076210021973,1.0752861499786377,0
2.5465328693389893,2.6686370372772217,8.566154479980469,2.032597780227661,-2.118415594100952,1.0518510341644287,0
3.111863613128662,2.9391818046569824,8.391377449035645,1.956433653831482,-2.025207757949829,1.010839581489563,0
3.6170401573181152,3.1741127967834473,8.365041732788086,1.8467146158218384,-1.9080320596694946,0.9511865377426147,0
4.055478572845459,3.423109769821167,8.400954246520996,1.735930323600769,-1.8158894777297974,0.8925986886024475,0
4.54419469833374,3.746626377105713,8.400954246520996,1.6299396753311157,-1.7466492652893066,0.8324130177497864,0
4.994604110717773,4.053084373474121,8.266879081726074,1.518622875213623,-1.6465173959732056,0.7418681979179382,0
5.4881086349487305,4.302380561828613,8.039131164550781,1.4503813982009888,-1.5058400630950928,0.6288869380950928,0
5.991190433502197,4.577713489532471,7.823652744293213,1.3971196413040161,-1.3140981197357178,0.49200451374053955,0
6.106112003326416,4.915595531463623,7.689577102661133,1.3710215091705322,-1.1425955295562744,0.3918725848197937,0
6.11329460144043,5.1454386711120605,7.516895294189453,1.341727614402771,-0.8858743906021118,0.27043604850769043,0
6.350320816040039,5.056853294372559,7.188889980316162,1.341727614402771,-0.8858743906021118,0.27043604850769043,0
6.23539924621582,5.217264652252197,7.073968410491943,1.3358688354492188,-0.8272866010665894,0.2427399754524231,0
5.967248439788818,5.329792022705078,6.817489147186279,1.2373347282409668,0.12290126085281372,-0.13914605975151062,0
5.739500045776367,5.351639270782471,6.470330238342285,1.1345397233963013,0.6001256704330444,-0.2467346042394638,0
5.547964096069336,5.315426826477051,6.108506202697754,1.0029834508895874,1.0172309875488281,-0.3244965970516205,0
5.313032627105713,5.262754440307617,5.737105846405029,0.8746228814125061,1.3650295734405518,-0.3655080795288086,0
4.956296920776367,5.262754440307617,5.476137638092041,0.307918906211853,2.5202746391296387,-0.35858407616615295,0
4.443638324737549,5.2986674308776855,5.380369663238525,0.307918906211853,2.5202746391296387,-0.35858407616615295,0
3.8926727771759033,5.351639270782471,5.452195644378662,0.20831963419914246,2.686983823776245,-0.3442034125328064,0
3.3728315830230713,5.387552261352539,5.653308868408203,-0.10166317969560623,3.114741325378418,-0.3031919598579407,0
2.841019630432129,5.317821025848389,5.871181011199951,-0.3711671233177185,3.3219292163848877,-0.27656111121177673,0
2.337938070297241,5.178957462310791,6.189908981323242,-0.5916703939437866,3.3182008266448975,-0.27443066239356995,0
1.8252794742584229,4.985027313232422,6.393416404724121,-0.8702954053878784,3.120067596435547,-0.2999962568283081,0
1.9931728839874268,4.235342979431152,6.259341239929199,-1.1770825386047363,2.8259966373443604,-0.40385645627975464,0
0.5270236730575562,4.594472885131836,6.367080211639404,-1.4630975723266602,2.5314598083496094,-0.450726717710495,0
-0.2753331959247589,4.855740547180176,6.640318393707275,-1.7011771202087402,2.2720754146575928,-0.41397619247436523,0
-0.6060323119163513,4.94193172454834,6.886921405792236,-1.8812015056610107,2.0260066986083984,-0.35006219148635864,0
-0.922366201877594,4.426878929138184,7.141005992889404,-2.035127639770508,1.8236123323440552,-0.30585503578186035,0
-0.9415197968482971,3.660435199737549,7.344512939453125,-2.1714775562286377,1.53919517993927,-0.270169734954834,0
-0.9558850526809692,3.0974984169006348,7.49774169921875,-2.244978666305542,1.340529203414917,-0.25206077098846436,0
-1.104325532913208,2.776376247406006,7.732673168182373,-2.2748050689697266,1.216429591178894,-0.23341917991638184,0
-1.2527660131454468,2.519897222518921,8.070255279541016,-2.271609306335449,1.134939193725586,-0.22170162200927734,0
-1.2934675216674805,2.275688648223877,8.448838233947754,-2.2369892597198486,1.0007199048995972,-0.20252743363380432,0
-1.2838906049728394,2.0673930644989014,8.767566680908203,-2.1965105533599854,0.8957943916320801,-0.19187510013580322,0
-1.2910733222961426,1.9282301664352417,9.157821655273438,-2.1107592582702637,0.7093786001205444,-0.17749445140361786,0
-1.3341689109802246,1.854009985923767,9.639355659484863,-2.030866861343384,0.574027419090271,-0.16577689349651337,0
-1.3772644996643066,1.7917606830596924,10.063427925109863,-1.873212218284607,0.3828181326389313,-0.14766792953014374,0
-1.391629695892334,1.6672621965408325,10.42764663696289,-1.7011771202087402,0.2523270845413208,-0.1407439112663269,0
-1.3413515090942383,1.4829087257385254,10.712555885314941,-1.5392616987228394,0.18202169239521027,-0.1407439112663269,0
-1.3078327178955078,1.2958617210388184,10.872967720031738,-0.8985240459442139,0.19054356217384338,-0.19720126688480377,0
-1.2527660131454468,1.1210849285125732,10.96664047241211,-0.8516538143157959,0.2001306563615799,-0.20306004583835602,0
-1.1689690351486206,1.003769040107727,11.036072731018066,-0.8516538143157959,0.2001306563615799,-0.20306004583835602,0
-1.0851719379425049,0.9103952050209045,11.0887451171875,-0.5708982944488525,0.24433782696723938,-0.25046291947364807,0
-1.0181342363357544,0.8433575630187988,11.148600578308105,-0.3482646346092224,0.24487043917179108,-0.29520270228385925,0
-1.0372878313064575,0.8310872912406921,11.174936294555664,-0.1373484879732132,0.19640234112739563,-0.3426055610179901,0
-1.0995371341705322,0.8262988328933716,11.27070426940918,0.022969087585806847,0.12290126085281372,-0.3772256374359131,0
-1.1785458326339722,0.8553285598754883,11.282675743103027,0.49753040075302124,-0.1620485782623291,-0.4523245692253113,0
-1.2743138074874878,0.8768763542175293,11.162965774536133,0.49753040075302124,-0.1620485782623291,-0.4523245692253113,0
-1.3868412971496582,0.9151836037635803,10.923246383666992,0.5683683753013611,-0.18175537884235382,-0.45711812376976013,0
-1.4326304197311401,0.943913996219635,10.753257751464844,0.7377404570579529,-0.23981058597564697,-0.4592485725879669,0
-1.4206594228744507,1.0013748407363892,10.640729904174805,0.8953949213027954,-0.2914743721485138,-0.45552027225494385,0
-1.3605051040649414,1.0851719379425049,10.470742225646973,1.0381361246109009,-0.331953227519989,-0.4475310146808624,0
-1.27191960811615,1.1761516332626343,10.25735855102539,1.1707576513290405,-0.36018192768096924,-0.44433531165122986,0
-1.1713632345199585,1.2982559204101562,10.063427925109863,1.3060423135757446,-0.3862801194190979,-0.4416722357273102,0
-1.0660183429718018,1.458966612815857,9.867103576660156,1.397652268409729,-0.3979976773262024,-0.44646579027175903,0
-0.943913996219635,1.6074072122573853,9.682451248168945,1.4668924808502197,-0.41184571385383606,-0.45498764514923096,0
-0.8553285598754883,1.7917606830596924,9.483732223510742,1.5110995769500732,-0.416106641292572,-0.46457475423812866,0
-0.8239046335220337,1.9812018871307373,9.296984672546387,1.544721007347107,-0.42356327176094055,-0.47682493925094604,0
-0.8071452379226685,2.167949676513672,9.141061782836914,1.5601669549942017,-0.4209001958370209,-0.48534679412841797,0
-0.7472901940345764,2.3594858646392822,8.939949035644531,1.5628299713134766,-0.40012815594673157,-0.4944012761116028,0
-0.6994061470031738,2.5055320262908936,8.70022964477539,1.5335360765457153,-0.3521926701068878,-0.49759697914123535,0
-0.6994061470031738,2.6925790309906006,8.494328498840332,1.2613024711608887,-0.28241991996765137,-0.4736292362213135,0
-0.7185598015785217,2.905663013458252,8.353070259094238,1.152116060256958,-0.26111525297164917,-0.4608464241027832,0
-0.7113772034645081,3.157353401184082,8.324339866638184,1.152116060256958,-0.26111525297164917,-0.4608464241027832,0
-0.6491279602050781,3.339312791824341,8.26927375793457,1.152116060256958,-0.26111525297164917,-0.4608464241027832,0
-0.5892729163169861,3.5021185874938965,8.195053100585938,1.0844738483428955,-0.23075610399246216,-0.45498764514923096,0
-0.4958990216255188,3.660435199737549,8.127716064453125,0.9944615960121155,-0.1833532303571701,-0.450726717710495,0
-0.4097077548503876,3.8184523582458496,8.166322708129883,0.875155508518219,-0.12742850184440613,-0.44646579027175903,0
-0.3330933153629303,3.9573161602020264,8.195053100585938,0.7473275661468506,-0.07523208111524582,-0.44327008724212646,0
-0.2828150689601898,4.093785762786865,8.233360290527344,0.621630072593689,-0.011850717477500439,-0.45285719633102417,0
-0.26815059781074524,4.1536407470703125,8.252513885498047,0.5167046189308167,0.04194355010986328,-0.4629769027233124,0
-0.3139396905899048,4.189553737640381,8.312369346618652,0.37662646174430847,0.11224892735481262,-0.4736292362213135,0
-0.43604397773742676,4.163217544555664,8.39616584777832,0.2466680258512497,0.16231487691402435,-0.47789016366004944,0
-0.6203975081443787,4.115333557128906,8.45362663269043,0.13588379323482513,0.20492419600486755,-0.46563997864723206,0
-0.7520785927772522,4.060266971588135,8.503905296325684,0.030958333984017372,0.26883819699287415,-0.44273748993873596,0
-0.8433575630187988,3.9932291507720947,8.61164379119873,-0.03881442919373512,0.30345824360847473,-0.4267589747905731,0
-0.9080010056495667,3.921403169631958,8.71728801727295,-0.07822804898023605,0.31091487407684326,-0.420367568731308,0
-0.9319429993629456,3.8208465576171875,8.820239067077637,-0.11018504202365875,0.3055887222290039,-0.4182371199131012,0
-0.9798270463943481,3.744232177734375,8.927978515625,-0.10965242236852646,0.3045234978199005,-0.4182371199131012,0
-1.0133458375930786,3.648164749145508,8.975862503051758,-0.08302159607410431,0.3087844252586365,-0.42249804735183716,0
-1.0660183429718018,3.5907039642333984,8.995016098022461,-0.044140592217445374,0.316241055727005,-0.4294220507144928,0
-1.1426327228546143,3.559579372406006,9.038111686706543,0.002197043038904667,0.30079516768455505,-0.43368300795555115,0
-1.2360066175460815,3.533243179321289,9.023746490478516,0.058121778070926666,0.2768274247646332,-0.43421560525894165,0
-1.3006501197814941,3.5236663818359375,9.059659004211426,0.11298127472400665,0.2310224175453186,-0.43528082966804504,0
-1.2982559204101562,3.530848979949951,9.097966194152832,0.13641640543937683,0.2118482142686844,-0.4374113082885742,0
-1.2743138074874878,3.559579372406006,9.081207275390625,0.13641640543937683,0.2118482142686844,-0.4374113082885742,0
-1.2096704244613647,3.5452141761779785,8.995016098022461,0.2557224929332733,0.18521739542484283,-0.46510738134384155,0
-1.2886791229248047,3.6290111541748047,8.932766914367676,0.3004622757434845,0.23741380870342255,-0.48641201853752136,0
-1.3988122940063477,3.703530788421631,8.901641845703125,0.319103866815567,0.28801238536834717,-0.49919483065605164,0
-1.5092449188232422,3.739443778991699,8.865729331970215,0.32549527287483215,0.30984964966773987,-0.5050535798072815,0
-1.6217724084854126,3.768174171447754,8.798690795898438,0.31590816378593445,0.3295564651489258,-0.5023905038833618,0
-1.7414824962615967,3.80648136138916,8.746018409729004,0.3020601272583008,0.3306216895580292,-0.49653175473213196,0
-1.8611925840377808,3.8400001525878906,8.690652847290039,0.27542930841445923,0.3370130956172943,-0.4794880151748657,0
-2.0003554821014404,3.8878843784332275,8.621220588684082,0.21630887687206268,0.32156720757484436,-0.42462852597236633,0
-2.0841526985168457,3.8878843784332275,8.606855392456055,0.21630887687206268,0.32156720757484436,-0.42462852597236633,0
-2.100912094116211,3.878307580947876,8.628403663635254,0.19127590954303741,0.3082517981529236,-0.4070521593093872,0
-2.079364061355591,3.880701780319214,8.649951934814453,0.1625146120786667,0.28907760977745056,-0.38201919198036194,0
-2.0865468978881836,3.875913381576538,8.673893928527832,0.14174257218837738,0.27789267897605896,-0.3649754524230957,0
-2.079364061355591,3.85197114944458,8.7268648147583,0.13641640543937683,0.27043604850769043,-0.3527252972126007,0
-2.1152772903442383,3.8639423847198486,8.722076416015625,0.13641640543937683,0.2635120153427124,-0.3340837061405182,0
-2.146401882171631,3.880701780319214,8.75080680847168,0.14387303590774536,0.25765323638916016,-0.3234313726425171,0
-2.117671489715576,3.8854901790618896,8.755595207214355,0.14760135114192963,0.2544575333595276,-0.3213009238243103,0
-2.036268472671509,3.832817554473877,8.741230010986328,0.14760135114192963,0.2544575333595276,-0.3213009238243103,0
-2.1128830909729004,3.9285857677459717,8.746018409729004,0.1816888004541397,0.2539249360561371,-0.31650736927986145,0
-2.2038626670837402,3.9764697551727295,8.710105895996094,0.20086300373077393,0.24966399371623993,-0.3037245571613312,0
-2.2685060501098633,4.017171382904053,8.654740333557129,0.22216765582561493,0.2304897904396057,-0.2802894413471222,0
-2.278082847595215,4.007594585418701,8.5996732711792,0.2354830801486969,0.20172850787639618,-0.26537618041038513,0
-2.2445640563964844,3.986046552658081,8.532635688781738,0.24134185910224915,0.18042384088039398,-0.2584521770477295,0
-2.256535053253174,3.9716813564300537,8.463203430175781,0.24187447130680084,0.16124965250492096,-0.2557890713214874,0
-2.345120668411255,3.9956233501434326,8.410531044006348,0.2360156923532486,0.1575213372707367,-0.25312599539756775,0
-2.4217350482940674,3.9812581539154053,8.32673454284668,0.23175476491451263,0.15965180099010468,-0.24353890120983124,0
-2.5441386699676514,3.96449875831604,8.228571891784668,0.21843934059143066,0.16231487691402435,-0.22862564027309418,0
-2.663848638534546,3.902249574661255,8.077438354492188,0.19127590954303741,0.1575213372707367,-0.19240771234035492,0
-2.8458080291748047,3.8400001525878906,7.912238121032715,0.16624292731285095,0.1452711522579193,-0.1631138026714325,0
-3.0086138248443604,3.7825393676757812,7.720701694488525,0.12097052484750748,0.10745538026094437,-0.10825430601835251,0
-3.178901195526123,3.7370495796203613,7.646481513977051,0.08262213319540024,0.05792204663157463,-0.06564498692750931,0
-3.2555158138275146,3.7083191871643066,7.651269912719727,0.06824149191379547,0.02809552103281021,-0.04327509179711342,0
-3.27227520942688,3.7155017852783203,7.756615161895752,-0.0009986559161916375,-0.13328728079795837,0.052063263952732086,0
-3.1860837936401367,3.720290184020996,7.996035099029541,-0.023901166394352913,-0.2259625494480133,0.09413997083902359,0
-3.0086138248443604,3.701136589050293,8.23814868927002,-0.022835932672023773,-0.2909417748451233,0.12929265201091766,0
-2.8984804153442383,3.739443778991699,8.444049835205078,-0.002063889056444168,-0.30798548460006714,0.1585865616798401,0
-2.7835588455200195,3.8160581588745117,8.623615264892578,0.025632169097661972,-0.3037245571613312,0.18148908019065857,0
-2.620753049850464,3.8854901790618896,8.772355079650879,0.05971962586045265,-0.2930722236633301,0.20332635939121246,0
-2.450465440750122,4.012382984161377,8.865729331970215,0.08794829994440079,-0.27496325969696045,0.21770699322223663,0
-2.2469582557678223,4.136881351470947,8.875306129455566,0.11937267333269119,-0.2382127344608307,0.2209026962518692,0
-2.1344308853149414,4.266467571258545,8.834604263305664,0.13109023869037628,-0.2041252851486206,0.21770699322223663,0
-2.076969861984253,4.398148536682129,8.83939266204834,0.14706873893737793,-0.1721682846546173,0.21397867798805237,0
-1.985990285873413,4.51067590713501,8.851364135742188,0.16357985138893127,-0.17696183919906616,0.20758728682994843,0
-1.854009985923767,4.570530891418457,8.822632789611816,0.1715690940618515,-0.19134248793125153,0.1878804713487625,0
-1.7295114994049072,4.577713489532471,8.753201484680176,0.17476479709148407,-0.19187510013580322,0.16497796773910522,0
-1.679233193397522,4.618414878845215,8.637980461120605,0.17849311232566833,-0.17749445140361786,0.13248835504055023,0
-1.6289550065994263,4.651933670043945,8.578125,0.17583002150058746,-0.16098333895206451,0.10639014840126038,0
-1.5667057037353516,4.692635536193848,8.515875816345215,0.16571031510829926,-0.15033100545406342,0.08188978582620621,0
-1.5260043144226074,4.668693542480469,8.448838233947754,0.15239490568637848,-0.1316894292831421,0.05312849581241608,0
-1.5020623207092285,4.639962673187256,8.386589050292969,0.1385468691587448,-0.1087869256734848,0.03555215150117874,0
-1.4876971244812012,4.611232280731201,8.290821075439453,0.11937267333269119,-0.07256899774074554,0.005193010903894901,0
-1.559523105621338,4.594472885131836,8.185476303100586,0.09220923483371735,-0.04274247586727142,-0.016111649572849274,0
-1.6648679971694946,4.575319290161133,8.171111106872559,0.06664364039897919,-0.02090519852936268,-0.02410089783370495,0
-1.7223289012908936,4.553771495819092,8.17829418182373,0.04640421271324158,-0.018242115154862404,-0.027829213067889214,0
-1.7414824962615967,4.5154643058776855,8.139687538146973,0.025099553167819977,-0.011318100616335869,-0.03368799388408661,0
-1.8276736736297607,4.479551315307617,8.12292766571045,0.003794892691075802,0.0025299284607172012,-0.04274247586727142,0
-1.8971055746078491,4.443638324737549,8.106168746948242,-0.006324821151793003,0.0003994623839389533,-0.04434032365679741,0
-1.9521721601486206,4.417302131652832,8.1325044631958,-0.03881442919373512,-0.06830807030200958,-0.031024912372231483,0
-2.007538080215454,4.378994941711426,8.151957511901855,-0.03881442919373512,-0.06830807030200958,-0.031024912372231483,0
-2.0171148777008057,4.350264549255371,8.21420669555664,-0.037749193608760834,-0.08322133123874664,-0.027829213067889214,0
-2.036268472671509,4.304774761199951,8.245331764221191,-0.03934704512357712,-0.10985215753316879,-0.01983996480703354,0
-2.031480073928833,4.273650169372559,8.350676536560059,-0.03934704512357712,-0.10985215753316879,-0.01983996480703354,0
-1.9692308902740479,4.266467571258545,8.408137321472168,-0.03934704512357712,-0.10985215753316879,-0.01983996480703354,0
-1.9473837614059448,4.273650169372559,8.412925720214844,-0.037749193608760834,-0.12529803812503815,-0.017176883295178413,0
-1.944989562034607,4.2760443687438965,8.444049835205078,-0.024433782324194908,-0.11624355614185333,-0.008655018173158169,0
-1.9617490768432617,4.268861770629883,8.448838233947754,-0.02656424790620804,-0.09334104508161545,-0.004394086077809334,0
-2.005143880844116,4.309563159942627,8.408137321472168,-0.026031631976366043,-0.061916667968034744,0.004127778112888336,0
-2.0913352966308594,4.335899353027344,8.436867713928223,-0.03295564651489258,-0.050199106335639954,0.02063889056444168,0
-2.1104888916015625,4.345476150512695,8.515875816345215,-0.03455349802970886,-0.07523208111524582,0.040345702320337296,0
-2.1152772903442383,4.359841346740723,8.63558578491211,-0.025499016046524048,-0.12156971544027328,0.06005251035094261,0
-2.031480073928833,4.359841346740723,8.71728801727295,-0.0057922047562897205,-0.16471165418624878,0.07070484012365341,0
-1.9138649702072144,4.3406877517700195,8.724471092224121,0.015512456186115742,-0.17003782093524933,0.07017222791910172,0
-1.8516157865524292,4.338293552398682,8.690652847290039,0.028295252472162247,-0.15618979930877686,0.06644391268491745,0
-1.8492215871810913,4.352658748626709,8.681076049804688,0.03681711480021477,-0.1306242048740387,0.06537867337465286,0
-1.8468273878097534,4.390965938568115,8.678682327270508,0.04161066561937332,-0.11198262125253677,0.07070484012365341,0
-1.8037316799163818,4.402936935424805,8.695441246032715,0.04214328154921532,-0.098667211830616,0.07283531129360199,0
-1.7702128887176514,4.426878929138184,8.707711219787598,0.044273748993873596,-0.0880148783326149,0.07549838721752167,0
-1.7534534931182861,4.4292731285095215,8.702624320983887,0.05599131062626839,-0.06777545064687729,0.07070484012365341,0
-1.7175405025482178,4.434061527252197,8.70022964477539,0.06930672377347946,-0.05712312087416649,0.06750914454460144,0
-1.6696563959121704,4.455609321594238,8.671499252319336,0.07836120575666428,-0.04274247586727142,0.06378082931041718,0
-1.6720505952835083,4.477157115936279,8.640374183654785,0.09380708634853363,-0.04007939249277115,0.061650361865758896,0
-1.6816273927688599,4.474762916564941,8.587701797485352,0.10073109716176987,-0.043807707726955414,0.0611177459359169,0
-1.6744447946548462,4.481945514678955,8.491933822631836,0.10605726391077042,-0.047003407031297684,0.057389430701732635,0
-1.6696563959121704,4.49870491027832,8.391377449035645,0.10605726391077042,-0.047003407031297684,0.057389430701732635,0
-1.7103577852249146,4.517858505249023,8.336311340332031,0.10552464425563812,-0.05179695412516594,0.06537867337465286,0
-1.7151461839675903,4.525041103363037,8.333916664123535,0.10658987611532211,-0.08375394344329834,0.0717700719833374,0
-1.698386788368225,4.520252704620361,8.343493461608887,0.11138343065977097,-0.12849372625350952,0.07869409024715424,0
-1.676838994026184,4.484339714050293,8.386589050292969,0.12469884008169174,-0.16524426639080048,0.07975932210683823,0
-1.6528970003128052,4.467580318450928,8.377012252807617,0.13481855392456055,-0.18814678490161896,0.07869409024715424,0
-1.6600795984268188,4.455609321594238,8.32912826538086,0.13481855392456055,-0.18814678490161896,0.07869409024715424,0
-1.734299898147583,4.455609321594238,8.288427352905273,0.1396121084690094,-0.1940055638551712,0.08135717362165451,0
-1.7917606830596924,4.4723687171936035,8.290821075439453,0.1726343333721161,-0.23341917991638184,0.12183602899312973,0
-1.801337480545044,4.474762916564941,8.30518627166748,0.18594974279403687,-0.28614822030067444,0.145803764462471,0
-1.7702128887176514,4.501099109649658,8.345888137817383,0.2024608552455902,-0.34793174266815186,0.1676410436630249,0
-1.6935983896255493,4.501099109649658,8.45123291015625,0.22696121037006378,-0.4155740439891815,0.18415215611457825,0
-1.6026188135147095,4.486733913421631,8.48475170135498,0.24879848957061768,-0.44327008724212646,0.1884130984544754,0
-1.5667057037353516,4.469974517822266,8.463203430175781,0.2796902358531952,-0.4624442756175995,0.19800019264221191,0
-1.6241666078567505,4.481945514678955,8.456021308898926,0.3121798634529114,-0.4944012761116028,0.22676147520542145,0
-1.676838994026184,4.527435302734375,8.491933822631836,0.33721283078193665,-0.5327496528625488,0.255522757768631,0
-1.8803461790084839,4.513070106506348,8.659528732299805,0.37822431325912476,-0.645664393901825,0.3167736828327179,0
-1.8324620723724365,4.537012100219727,8.822632789611816,0.437877357006073,-0.776155412197113,0.389209508895874,0
-1.559523105621338,4.644751071929932,9.011775016784668,0.5459985136985779,-0.9322120547294617,0.42915576696395874,0
-1.413476824760437,4.716577529907227,9.196128845214844,0.6397390365600586,-1.0115718841552734,0.4360797703266144,0
-1.2671312093734741,4.5825018882751465,9.20091724395752,0.7654365301132202,-1.1223561763763428,0.4435364007949829,0
-1.224035620689392,4.630385875701904,9.083600997924805,0.8948622941970825,-1.2693582773208618,0.45951488614082336,0
-1.224035620689392,4.810250282287598,8.841787338256836,0.9704938530921936,-1.352979063987732,0.477623850107193,0
-1.149815320968628,4.917989730834961,8.432079315185547,0.9704938530921936,-1.352979063987732,0.477623850107193,0
-1.0205284357070923,5.064035892486572,8.087015151977539,1.1340070962905884,-1.6731481552124023,0.5665708184242249,0
-0.7712322473526001,5.226841449737549,7.840412139892578,1.119093894958496,-1.8318679332733154,0.5846797823905945,0
-0.512658417224884,5.3348798751831055,7.682394504547119,1.0834085941314697,-1.9314671754837036,0.589473307132721,0
-0.2899976670742035,5.406705856323242,7.576750755310059,1.0567777156829834,-1.9895224571228027,0.5921363830566406,0
-0.002394201699644327,5.581482887268066,7.562385559082031,1.028549075126648,-2.0566320419311523,0.5868102312088013,0
0.4073135554790497,5.71316385269165,7.478588104248047,0.9726243019104004,-2.1780686378479004,0.49413496255874634,0
0.6850409507751465,5.787384033203125,7.358878135681152,0.9726243019104004,-2.1780686378479004,0.49413496255874634,0
0.7377133965492249,5.873575210571289,7.162553787231445,0.9625046253204346,-2.2009711265563965,0.4893414080142975,0
0.7209540009498596,6.0294976234436035,6.951564788818359,0.9214931130409241,-2.3357231616973877,0.5047873258590698,0
0.7496843934059143,6.1396307945251465,6.704961776733398,0.868231475353241,-2.5136170387268066,0.5516575574874878,0
0.9702502489089966,6.242581844329834,6.407781600952148,0.8027196526527405,-2.671271562576294,0.5990604162216187,0
1.437418818473816,6.333561420440674,6.005555629730225,0.6690329313278198,-2.849698066711426,0.6412037014961243,0
2.1799206733703613,6.455665588378906,5.698798656463623,0.46450817584991455,-2.9690041542053223,0.6251586079597473,0
3.205237627029419,6.489483833312988,5.4665608406066895,0.15399274230003357,-2.9524929523468018,0.4989285171031952,0
4.105756759643555,6.426935195922852,5.301061630249023,-0.07503235340118408,-2.844371795654297,0.37695932388305664,0
4.742913722991943,6.398204803466797,5.238812446594238,-0.7253571152687073,-2.3415818214416504,0.06005251035094261,0
5.040093898773193,6.438906192779541,5.2340240478515625,-0.7253571152687073,-2.3415818214416504,0.06005251035094261,0
5.06643009185791,6.518214225769043,5.29387903213501,-0.9416660070419312,-2.115219831466675,-0.018242115154862404,0
5.013757705688477,6.508637428283691,5.354033470153809,-1.1781476736068726,-1.7903238534927368,-0.07363422960042953,0
4.94193172454834,6.407781600952148,5.404311656951904,-1.37947678565979,-1.4334042072296143,-0.10079767554998398,0
4.913201332092285,6.261735439300537,5.478531837463379,-1.5397943258285522,-1.0398006439208984,-0.11837401986122131,0
5.131073474884033,6.036680221557617,5.440224647521973,-1.6820029020309448,-0.6137073636054993,-0.183885857462883,0
5.342062473297119,5.765836238861084,5.394734859466553,-1.8226137161254883,-0.19613602757453918,-0.2994636297225952,0
5.36361026763916,5.495291233062744,5.366004467010498,-1.9834638833999634,0.2837514579296112,-0.4304873049259186,0
5.193322658538818,4.551377296447754,4.9706621170043945,-2.128335475921631,0.8089779019355774,-0.5418041348457336,0
4.525041103363037,5.607819080352783,5.461772441864014,-2.2849247455596924,1.3037786483764648,-0.49759697914123535,0
2.8482022285461426,5.89512300491333,5.84963321685791,-2.4574925899505615,1.7836661338806152,-0.25312599539756775,0
2.050633668899536,5.662885665893555,5.93133544921875,-2.6263320446014404,2.1703457832336426,0.012117025442421436,0
1.7678186893463135,4.742913722991943,5.912181854248047,-2.9490976333618164,2.7327888011932373,0.4121120274066925,0
1.7486650943756104,3.8160581588745117,6.060622215270996,-3.2016243934631348,3.0385773181915283,0.619832456111908,0
1.6672621965408325,3.22678542137146,6.654683589935303,-3.519063949584961,3.305418014526367,0.8127062320709229,0
1.3341689109802246,2.8505964279174805,7.258321762084961,-3.854612350463867,3.4731922149658203,0.9724911451339722,0
0.81672203540802,2.5055320262908936,7.806893348693848,-4.0404953956604,3.536573648452759,1.0678294897079468,0
0.3067570924758911,2.100912094116211,8.30518627166748,-4.152877330780029,3.5711936950683594,1.141863226890564,0
-0.13168109953403473,1.6433202028274536,8.753201484680176,-4.152877330780029,3.5711936950683594,1.141863226890564,0
-0.4743511974811554,1.1665748357772827,9.174580574035645,-4.373913288116455,3.5333778858184814,1.424149990081787,0
-0.773626446723938,0.7640495896339417,9.58907699584961,-4.34941291809082,3.386375665664673,1.5312058925628662,0
-1.0420763492584229,0.4480150043964386,9.965266227722168,-4.266324996948242,3.1722638607025146,1.616957187652588,0
-1.106719732284546,0.043095629662275314,10.27890682220459,-4.103343963623047,2.852094888687134,1.6744797229766846,0
-1.0636241436004639,-0.3570353388786316,10.432435035705566,-3.9179935455322266,2.59324312210083,1.6755449771881104,0
-1.0708067417144775,-0.756866991519928,10.45158863067627,-3.7044143676757812,2.388185977935791,1.639327049255371,0
-1.061229944229126,-1.1689690351486206,10.377068519592285,-3.5291836261749268,2.2688796520233154,1.5940546989440918,0
-1.0324994325637817,-1.559523105621338,10.288483619689941,-3.30441951751709,2.1719436645507812,1.5125643014907837,0
-0.9103952050209045,-1.8851345777511597,10.22144603729248,-3.0945019721984863,2.1506388187408447,1.401780128479004,0
-0.39055415987968445,-2.0219032764434814,10.125677108764648,-2.9166080951690674,2.2592926025390625,1.1610374450683594,0
-0.4456208050251007,-2.495955228805542,10.161590576171875,-2.7557578086853027,2.2262704372406006,0.9597083926200867,0
-0.8071452379226685,-2.687790632247925,10.051457405090332,-2.6636152267456055,2.1708784103393555,0.8633047938346863,0
-1.367687702178955,-2.6446950435638428,9.962871551513672,-2.6636152267456055,2.1708784103393555,0.8633047938346863,0
