AccX,AccY,AccZ,GyroX,GyroY,GyroZ,Label
-1.1953052282333374,3.7538089752197266,9.634567260742188,0.1368158608675003,0.3874119222164154,1.217428207397461,0
-1.2647370100021362,4.12251615524292,9.296984672546387,0.2012624591588974,0.3655746579170227,1.279744267463684,0
-1.1522095203399658,4.827009677886963,9.165003776550293,0.21883881092071533,0.32882413268089294,1.2861356735229492,0
-1.346139907836914,4.917989730834961,9.050082206726074,0.24067609012126923,0.22602912783622742,1.2856030464172363,0
-1.7869722843170166,4.2760443687438965,8.798690795898438,0.2550567388534546,0.04760260134935379,1.3436583280563354,0
-0.41449618339538574,4.038719177246094,8.185476303100586,0.19220797717571259,-0.023235395550727844,1.301048994064331,0
-0.2585737705230713,3.6939539909362793,8.055890083312988,0.14427249133586884,-0.10046479105949402,1.2163629531860352,0
-0.9080010056495667,3.677194595336914,8.00800609588623,0.14107680320739746,-0.23734723031520844,1.217428207397461,0
-0.8816647529602051,3.5260605812072754,7.354089736938477,0.12882661819458008,-0.49939456582069397,1.2152976989746094,0
-0.36421793699264526,3.940556764602661,6.520608425140381,0.06384740769863129,-0.7049845457077026,1.1194267272949219,0
0.3306991159915924,4.5394062995910645,5.737105846405029,-0.044273748993873596,-0.6266899108886719,0.9628375172615051,0
0.6419453024864197,4.766855716705322,5.900210857391357,-0.1177748292684555,-0.3262941837310791,0.6789528727531433,0
0.6084265112876892,4.872499942779541,6.144419193267822,-0.10392680019140244,-0.12230207026004791,0.4877435564994812,0
0.4982932209968567,4.771644115447998,6.0510454177856445,-0.10978557914495468,-0.1446719616651535,0.3785571753978729,0
0.27054479718208313,4.3622355461120605,5.746682643890381,-0.1284271627664566,-0.2959350347518921,0.3593829870223999,0
0.2059013396501541,3.3943793773651123,5.2124762535095215,-0.18967805802822113,-0.5217644572257996,0.3833507299423218,0
0.22266076505184174,2.385822057723999,4.6471452713012695,-0.2972666025161743,-0.5899393558502197,0.4371449947357178,0
0.17238251864910126,1.6241666078567505,4.220977783203125,-0.4181705415248871,-0.5436017513275146,0.520233154296875,0
0.15562310814857483,1.1976994276046753,4.093785762786865,-0.5790207386016846,-0.38647985458374023,0.7087793946266174,0
0.32112228870391846,1.0564415454864502,4.347870349884033,-0.6972615718841553,-0.3161744773387909,0.934076189994812,0
0.6778583526611328,0.9726444482803345,4.779125690460205,-0.7377404570579529,-0.4450676739215851,1.1412640810012817,0
1.0420763492584229,0.7472901940345764,5.1238908767700195,-0.72176194190979,-0.7316153645515442,1.3708217144012451,0
1.1115081310272217,0.5485714673995972,5.380369663238525,-0.7276207208633423,-0.9063135981559753,1.5694876909255981,0
1.14742112159729,0.16998831927776337,5.435436248779297,-0.7169684171676636,-1.1688934564590454,1.8235458135604858,0
1.5762825012207031,-0.2561795711517334,5.257966041564941,-0.6807504892349243,-1.4102354049682617,2.045713424682617,0
2.1080946922302246,-0.6682815551757812,5.28190803527832,-0.6306845545768738,-1.631271243095398,2.2166833877563477,0
2.90805721282959,-1.3341689109802246,5.186140060424805,-0.5715640783309937,-1.8895902633666992,2.280064821243286,0
4.036324977874756,-2.117671489715576,4.946720123291016,-0.44586658477783203,-2.2538998126983643,2.1383886337280273,0
5.023334503173828,-2.8529906272888184,4.716577529907227,-0.3105820119380951,-2.512751579284668,1.9519729614257812,0
5.595848083496094,-3.4326868057250977,4.422090530395508,-0.1278945356607437,-2.8797242641448975,1.7021092176437378,0
5.7107696533203125,-3.6652235984802246,4.158429145812988,0.008987903594970703,-3.569995403289795,1.5577701330184937,0
5.459378242492676,-3.940556764602661,3.792116165161133,0.04627105966210365,-4.104808807373047,1.5694876909255981,0
5.342062473297119,-4.259284973144531,3.3441011905670166,0.06544525176286697,-4.7151875495910645,1.6424561738967896,0
5.533598899841309,-4.577713489532471,2.6925790309906006,0.02656424790620804,-5.196140289306641,1.7298052310943604,0
5.761047840118408,-4.9922099113464355,2.050633668899536,-0.299929678440094,-5.680288314819336,1.939656138420105,0
6.221034049987793,-5.428253650665283,1.676838994026184,-0.34893038868904114,-5.693071365356445,1.9674187898635864,0
6.443694591522217,-6.017526626586914,1.3509283065795898,-0.6253583431243896,-5.625961780548096,2.1106927394866943,0
6.877344608306885,-6.575675010681152,1.3796586990356445,-0.991332471370697,-5.307989597320557,2.317880392074585,0
7.699153900146484,-7.11227560043335,1.9617490768432617,-1.2746844291687012,-4.945810317993164,2.459023952484131,0
8.353070259094238,-7.620145320892334,2.8936920166015625,-1.32901132106781,-4.865917682647705,2.481393814086914,0
8.83699893951416,-8.000823974609375,3.7753567695617676,-1.6544400453567505,-4.226245403289795,2.6901793479919434,0
9.455001831054688,-8.321946144104004,4.273650169372559,-1.7929203510284424,-3.9375672340393066,2.775398015975952,0
9.914987564086914,-8.568548202514648,4.235342979431152,-1.9692163467407227,-3.6594748497009277,2.8547580242156982,0
10.36988639831543,-8.78432559967041,4.069843769073486,-2.1444473266601562,-3.4411020278930664,2.9229328632354736,0
10.925640106201172,-9.030928611755371,4.053084373474121,-2.4373862743377686,-3.1364455223083496,3.010282039642334,0
11.517606735229492,-9.205705642700195,4.522646903991699,-2.608356237411499,-2.9596168994903564,3.066206693649292,0
12.19067668914795,-9.354445457458496,5.552752494812012,-2.608356237411499,-2.9596168994903564,3.066206693649292,0
12.592902183532715,-9.323320388793945,6.822277545928955,-2.777728319168091,-2.597437620162964,3.1817843914031982,0
13.407529830932617,-9.519645690917969,8.024765968322754,-2.6728029251098633,-2.3710756301879883,3.173262596130371,0
14.001590728759766,-9.49809741973877,8.789113998413086,-2.445375442504883,-2.128202438354492,3.093370199203491,0
14.24340534210205,-9.255983352661133,8.851364135742188,-2.1385884284973145,-1.8182196617126465,2.9511616230010986,0
13.99680233001709,-8.7484130859375,8.209418296813965,-1.9532378911972046,-1.6025099754333496,2.840909957885742,0
13.527239799499512,-8.250120162963867,7.220014572143555,-1.8701497316360474,-1.4453880786895752,2.767941474914551,0
13.052887916564941,-7.88350772857666,6.343138217926025,-1.8387253284454346,-1.2802103757858276,2.6859185695648193,0
12.633903503417969,-7.596203327178955,5.715558052062988,-1.8754758834838867,-1.1678283214569092,2.611884832382202,0
12.307991981506348,-7.354089736938477,5.3348798751831055,-1.911161184310913,-1.1364039182662964,2.565014600753784,0
12.05390739440918,-7.217620372772217,5.1909284591674805,-1.911161184310913,-1.1364039182662964,2.565014600753784,0
11.86955451965332,-7.107487201690674,5.178957462310791,-1.9148895740509033,-1.1300125122070312,2.545840263366699,0
11.807305335998535,-7.047631740570068,5.339668273925781,-1.8845304250717163,-1.1252189874649048,2.5213398933410645,0
12.027571678161621,-7.0236897468566895,5.691616058349609,-1.7955833673477173,-1.1044468879699707,2.471806764602661,0
12.38221263885498,-6.968324184417725,6.034286022186279,-1.6629619598388672,-1.062902808189392,2.3988382816314697,0
12.633903503417969,-6.824671745300293,6.24737024307251,-1.5314055681228638,-0.9909995794296265,2.3237392902374268,0
12.787132263183594,-6.57806921005249,6.323984622955322,-1.35084867477417,-0.8573128581047058,2.20975923538208,0
12.662633895874023,-6.189908981323242,6.094141006469727,-1.1782808303833008,-0.6927343606948853,2.089387893676758,0
12.279261589050293,-5.734711647033691,5.502473831176758,-1.0552464723587036,-0.5057859420776367,1.9817994832992554,0
11.862371444702148,-5.337274074554443,4.754884719848633,-1.0046478509902954,-0.3135114014148712,1.8965142965316772,0
11.457451820373535,-4.985027313232422,4.0650553703308105,-1.0216916799545288,-0.15053074061870575,1.8262088298797607,0
11.158177375793457,-4.642356872558594,3.5188779830932617,-1.1180951595306396,-0.01631138101220131,1.762294888496399,0
11.038467407226562,-4.345476150512695,3.2148144245147705,-1.2267489433288574,0.0678420290350914,1.7100985050201416,0
11.048044204711914,-4.1320929527282715,3.1741127967834473,-1.335935354232788,0.1312233954668045,1.647249698638916,0
11.191696166992188,-4.069843769073486,3.3441011905670166,-1.413697361946106,0.16957178711891174,1.5673571825027466,0
11.340136528015137,-4.0770263671875,3.648164749145508,-1.4552414417266846,0.18661551177501678,1.4613665342330933,0
11.447875022888184,-4.129698753356934,4.029142379760742,-1.4499152898788452,0.18927858769893646,1.338864803314209,0
11.380837440490723,-4.170400142669678,4.395754337310791,-1.4035776853561401,0.1738327145576477,1.2136998176574707,0
11.150994300842285,-4.136881351470947,4.644751071929932,-1.3252830505371094,0.15838684141635895,1.1002525091171265,0
10.860997200012207,-4.124910354614258,4.776731491088867,-1.2251511812210083,0.1413431018590927,0.9979901909828186,0
10.501866340637207,-4.074632167816162,4.822221279144287,-1.114366888999939,0.12003844976425171,0.9101084470748901,0
10.084976196289062,-4.057872772216797,4.800673484802246,-0.9971912503242493,0.08808145672082901,0.8467270731925964,0
9.696816444396973,-4.038719177246094,4.747702121734619,-0.9007876515388489,0.047069985419511795,0.8131722807884216,0
9.368810653686523,-4.048295974731445,4.721365928649902,-0.7750235795974731,-0.023235395550727844,0.7844109535217285,0
9.160215377807617,-4.100968360900879,4.771644115447998,-0.6392064094543457,-0.12283468246459961,0.7769543528556824,0
9.208099365234375,-4.213795185089111,4.951508522033691,-0.47675836086273193,-0.24586910009384155,0.771628201007843,0
9.40711784362793,-4.321534156799316,5.2124762535095215,-0.2786250114440918,-0.3779579997062683,0.7561823129653931,0
9.58668327331543,-4.455609321594238,5.3564276695251465,-0.0016644266434013844,-0.5531888008117676,0.7332797646522522,0
9.816526412963867,-4.704606533050537,5.313032627105713,0.2321542203426361,-0.7310827374458313,0.7199643850326538,0
10.175955772399902,-5.1909284591674805,5.0807952880859375,0.39673271775245667,-0.9036504626274109,0.7130403518676758,0
10.595240592956543,-5.878363609313965,4.745307922363281,0.5703657269477844,-1.1369365453720093,0.7082468271255493,0
10.961852073669434,-6.465541839599609,4.467580318450928,0.7296180725097656,-1.3953220844268799,0.7135729789733887,0
11.256339073181152,-6.810306549072266,4.228160381317139,0.8079126477241516,-1.532204508781433,0.7220948338508606,0
11.524788856506348,-6.934805393218994,4.124910354614258,0.8915334343910217,-1.661097764968872,0.7210295796394348,0
11.859977722167969,-6.862978935241699,4.141669750213623,0.9852739572525024,-1.74791419506073,0.6677679419517517,0
12.102090835571289,-6.621164798736572,4.247313976287842,1.0513184070587158,-1.768686294555664,0.5873428583145142,0
12.240954399108887,-6.33834981918335,4.311957359313965,1.165298342704773,-1.7516425848007202,0.39453569054603577,0
12.31517505645752,-6.082170009613037,4.261679172515869,1.2435929775238037,-1.7196855545043945,0.2209026962518692,0
12.228983879089355,-5.952883243560791,4.124910354614258,1.3682252168655396,-1.6254124641418457,-0.08002562820911407,0
12.013206481933594,-5.936123847961426,3.940556764602661,1.4598352909088135,-1.5087693929672241,-0.34793174266815186,0
11.661258697509766,-5.928941249847412,3.7609915733337402,1.5605664253234863,-1.3564411401748657,-0.6175022721290588,0
11.105504989624023,-5.9193644523620605,3.516483783721924,1.658035159111023,-1.1720892190933228,-0.8635711073875427,0
10.442011833190918,-5.8855462074279785,3.2411506175994873,1.7288732528686523,-1.002184510231018,-1.038269281387329,0
9.76864242553711,-5.868786811828613,2.9128456115722656,1.802374243736267,-0.7939314842224121,-1.2156306505203247,0
9.188945770263672,-5.9193644523620605,2.5632922649383545,1.871081829071045,-0.5926024317741394,-1.3972527980804443,0
8.769960403442383,-6.094141006469727,2.213439464569092,1.903571367263794,-0.4967314600944519,-1.5282765626907349,0
8.42968463897705,-6.407781600952148,1.8468273878097534,1.9057018756866455,-0.46797019243240356,-1.6220170259475708,0
8.113350868225098,-6.843825340270996,1.5164275169372559,1.8737448453903198,-0.4972640872001648,-1.7349317073822021,0
7.823652744293213,-7.3109941482543945,1.2958617210388184,1.833266019821167,-0.5824827551841736,-1.796182632446289,0
7.4187331199646,-7.600991725921631,1.3006501197814941,1.8108961582183838,-0.6304182410240173,-1.8020414113998413,0
7.354089736938477,-8.319551467895508,1.2072762250900269,1.8108961582183838,-0.6304182410240173,-1.8020414113998413,0
7.222408771514893,-8.904036521911621,1.2503718137741089,1.6921226978302002,-1.0597071647644043,-1.7770084142684937,0
7.081151008605957,-9.337685585021973,1.4230536222457886,1.6495133638381958,-1.285536527633667,-1.7008442878723145,0
6.958747386932373,-9.648932456970215,1.7079635858535767,1.6303391456604004,-1.5055737495422363,-1.6007122993469238,0
6.676231384277344,-9.68005657196045,1.9764134883880615,1.6266108751296997,-1.7660231590270996,-1.4537101984024048,0
6.918045997619629,-9.989208221435547,2.428917646408081,1.6676223278045654,-2.0296683311462402,-1.337599754333496,0
7.016208171844482,-10.063427925109863,2.7835588455200195,1.7576345205307007,-2.3753364086151123,-1.2103044986724854,0
7.200860977172852,-10.075399398803711,3.1908724308013916,1.8918538093566895,-2.6320576667785645,-1.136803388595581,0
7.275081157684326,-9.900622367858887,3.39677357673645,2.0356602668762207,-2.868539333343506,-1.083541750907898,0
7.222408771514893,-9.632172584533691,3.310582399368286,2.136857509613037,-3.022465467453003,-1.0403997898101807,0
7.234379768371582,-9.380781173706055,2.927210807800293,2.225804328918457,-3.133782386779785,-1.001518726348877,0
7.346907138824463,-9.198522567749023,2.404975652694702,2.2364566326141357,-3.176924228668213,-0.9929969310760498,0
7.428309917449951,-9.009381294250488,1.8947113752365112,2.010627269744873,-3.036846160888672,-1.0542478561401367,0
7.445069313049316,-8.705317497253418,1.5906476974487305,1.9845291376113892,-3.0096826553344727,-1.0670305490493774,0
7.581838130950928,-8.690652847290039,1.2599486112594604,1.893984317779541,-2.910083532333374,-1.1080421209335327,0
7.706336498260498,-8.637980461120605,1.0564415454864502,1.7672215700149536,-2.751363754272461,-1.1730213165283203,0
7.730278968811035,-8.54460620880127,0.9271546006202698,1.5589685440063477,-2.4903817176818848,-1.2848707437515259,0
7.694365501403809,-8.424896240234375,0.8529343605041504,1.4124324321746826,-2.3034331798553467,-1.3631653785705566,0
7.569568157196045,-8.307580947875977,0.7927800416946411,1.232940673828125,-2.0664188861846924,-1.4643625020980835,0
7.370849132537842,-8.161534309387207,0.7808090448379517,1.043861746788025,-1.832067608833313,-1.5612987279891968,0
7.133823394775391,-8.067861557006836,0.795174241065979,0.8691635727882385,-1.5966511964797974,-1.6571696996688843,0
6.8557963371276855,-7.979275703430176,0.8672995567321777,0.7061828970909119,-1.354843258857727,-1.73812735080719,0
6.508637428283691,-7.893084526062012,0.9487023949623108,0.5602459907531738,-1.114566683769226,-1.7977805137634277,0
6.142024993896484,-7.790133953094482,1.0492589473724365,0.4361463487148285,-0.8775522708892822,-1.8382593393325806,0
5.75865364074707,-7.641693115234375,1.1378443241119385,0.3306882679462433,-0.6506576538085938,-1.8515747785568237,0
5.368398666381836,-7.507318496704102,1.1881226301193237,0.23641514778137207,-0.391806036233902,-1.833465814590454,0
5.023334503173828,-7.370849132537842,1.1929110288619995,0.17409902811050415,-0.19207483530044556,-1.7929868698120117,0
4.692635536193848,-7.2248029708862305,1.1713632345199585,0.12083736807107925,-0.0008655018173158169,-1.7274750471115112,0
4.402936935424805,-7.095516204833984,1.106719732284546,0.08834776282310486,0.13495171070098877,-1.660897970199585,0
4.16800594329834,-6.989871978759766,1.0109516382217407,0.06810833513736725,0.19939830899238586,-1.6230822801589966,0
3.947739362716675,-6.879738807678223,0.900818407535553,0.06810833513736725,0.19939830899238586,-1.6230822801589966,0
3.7514147758483887,-6.731297969818115,0.7879916429519653,-0.05386084318161011,0.5477294921875,-1.3258821964263916,0
3.576338768005371,-6.57806921005249,0.6634931564331055,-0.10126371681690216,0.638806939125061,-1.1884671449661255,0
3.4159271717071533,-6.530185222625732,0.5964555144309998,-0.15292751789093018,0.7021883130073547,-1.0350736379623413,0
3.2818520069122314,-6.592434406280518,0.5389946699142456,-0.2045913189649582,0.7447975873947144,-0.861973226070404,0
3.1884782314300537,-6.652289390563965,0.5389946699142456,-0.25146156549453735,0.7527868747711182,-0.6734269857406616,0
3.1693243980407715,-6.745663166046143,0.5796960592269897,-0.2866142690181732,0.7224277257919312,-0.46517395973205566,0
3.1980550289154053,-6.944382190704346,0.6706757545471191,-0.3073863089084625,0.6436004638671875,-0.19027724862098694,0
3.3057940006256104,-7.1912841796875,0.7760206460952759,-0.31377771496772766,0.5653058290481567,0.004660394508391619,0
3.5069069862365723,-7.413944721221924,0.9080010056495667,-0.30632108449935913,0.3969990313053131,0.29174068570137024,0
3.770568370819092,-7.536048889160156,1.027711033821106,-0.28075549006462097,0.22123558819293976,0.5159722566604614,0
4.086603164672852,-7.571962356567383,1.14742112159729,-0.2578529715538025,0.07263557612895966,0.6730940937995911,0
4.455609321594238,-7.526472091674805,1.2096704244613647,-0.2237655073404312,-0.10898665338754654,0.8376725912094116,0
4.803067684173584,-7.437886714935303,1.1785458326339722,-0.19766730070114136,-0.26557591557502747,0.9649679660797119,0
5.28190803527832,-7.478588104248047,1.0923545360565186,-0.19926515221595764,-0.4248282313346863,1.0677629709243774,0
6.048651218414307,-7.873930931091309,0.9056068062782288,-0.24134185910224915,-0.5372103452682495,1.094926357269287,0
7.011419773101807,-8.60925006866455,0.6802525520324707,-0.3297562003135681,-0.5984612107276917,1.0469908714294434,0
7.680000305175781,-9.337685585021973,0.4216787815093994,-0.426692396402359,-0.5712977647781372,0.9708267450332642,0
7.840412139892578,-9.818920135498047,0.22744916379451752,-0.5784881114959717,-0.4120454490184784,0.8845428824424744,0
7.598597526550293,-10.068216323852539,0.15562310814857483,-0.791002094745636,-0.0701056495308876,0.8350095152854919,0
6.965929985046387,-9.924564361572266,0.15562310814857483,-0.9428643584251404,0.2169746458530426,0.8541837334632874,0
6.120477199554443,-9.416694641113281,0.31872808933258057,-1.16549813747406,0.6595789790153503,0.9702941179275513,0
5.317821025848389,-8.753201484680176,0.5677250623703003,-1.2975869178771973,0.9461266398429871,1.0997200012207031,0
4.815038681030273,-8.046313285827637,0.9367313981056213,-1.4291433095932007,1.2503172159194946,1.2930597066879272,0
4.534617900848389,-7.380425930023193,1.3628993034362793,-1.5159597396850586,1.4931904077529907,1.4986497163772583,0
4.4723687171936035,-6.872556209564209,1.7055693864822388,-1.5713518857955933,1.7456506490707397,1.745783805847168,0
4.584896087646484,-6.676231384277344,1.8899229764938354,-1.5953196287155151,1.9469796419143677,1.939123511314392,0
4.903624534606934,-6.697779178619385,1.9716250896453857,-1.605439305305481,2.1099603176116943,2.0776703357696533,0
5.354033470153809,-6.932411193847656,2.076969861984253,-1.6065045595169067,2.331528663635254,2.251836061477661,0
5.8639984130859375,-7.162553787231445,2.2373814582824707,-1.5756127834320068,2.443910837173462,2.3620877265930176,0
6.355109214782715,-7.291840553283691,2.532167673110962,-1.4919919967651367,2.4646828174591064,2.4419801235198975,0
6.874950408935547,-7.385214328765869,2.86256742477417,-1.3556421995162964,2.3565616607666016,2.495774507522583,0
7.461828708648682,-7.49774169921875,3.1022868156433105,-1.2118357419967651,2.1792004108428955,2.5112202167510986,0
8.12292766571045,-7.617751121520996,3.243544816970825,-0.9950608015060425,1.8766742944717407,2.4979047775268555,0
8.827422142028809,-7.785345554351807,3.245939016342163,-0.7047182321548462,1.4431244134902954,2.4126861095428467,0
9.34965705871582,-7.936180114746094,3.0110080242156982,-0.48687806725502014,1.0623036623001099,2.293912649154663,0
9.718363761901855,-8.015189170837402,2.5872342586517334,-0.31697338819503784,0.7186993956565857,2.149573564529419,0
9.970054626464844,-8.010400772094727,2.0649988651275635,-0.20885224640369415,0.4619782567024231,1.9775385856628418,0
10.09934139251709,-8.00800609588623,1.5092449188232422,-0.1827540397644043,0.313378244638443,1.792121410369873,0
10.106523513793945,-7.9864583015441895,0.9941922426223755,-0.2258959710597992,0.2691710591316223,1.5945206880569458,0
10.005967140197754,-7.933785915374756,0.6084265112876892,-0.3095167577266693,0.2936714291572571,1.4358009099960327,0
9.845556259155273,-7.859565734863281,0.34745851159095764,-0.4501275420188904,0.39380332827568054,1.2424612045288086,0
9.569923400878906,-7.7446441650390625,0.22744916379451752,-0.6519891619682312,0.6159043908119202,1.0145013332366943,0
9.167398452758789,-7.555202960968018,0.2876034677028656,-0.8218938708305359,0.8491904735565186,0.8493902087211609,0
8.71489429473877,-7.313388347625732,0.4935048222541809,-0.9396686553955078,1.045259952545166,0.7391385436058044,0
8.264485359191895,-7.083545207977295,0.8119336366653442,-1.0153002738952637,1.1800118684768677,0.6688331961631775,0
7.857171535491943,-6.913257598876953,1.1617863178253174,-1.0153002738952637,1.1800118684768677,0.6688331961631775,0
7.502530097961426,-6.788758754730225,1.4853029251098633,-1.1425955295562744,1.636464238166809,0.44300377368927,0
7.217620372772217,-6.690596580505371,1.777395486831665,-1.1175626516342163,1.714226245880127,0.3897421360015869,0
6.98508358001709,-6.599617004394531,1.9931728839874268,-1.1175626516342163,1.714226245880127,0.3897421360015869,0
6.800729751586914,-6.515820026397705,2.1080946922302246,-0.9386034607887268,1.7877273559570312,0.32156720757484436,0
6.716932773590088,-6.475118637084961,2.072181463241577,-0.8112415075302124,1.7754771709442139,0.3146432042121887,0
6.66904878616333,-6.48708963394165,1.875557780265808,-0.5380092263221741,1.6423230171203613,0.3178389072418213,0
6.666654586791992,-6.4846954345703125,1.5643115043640137,-0.5380092263221741,1.6423230171203613,0.3178389072418213,0
6.6594719886779785,-6.438906192779541,1.2120646238327026,-0.4890085458755493,1.568821907043457,0.3146432042121887,0
6.630741596221924,-6.37186861038208,0.8119336366653442,-0.46397554874420166,1.4702879190444946,0.31091487407684326,0
6.602011203765869,-6.312013626098633,0.46238020062446594,-0.47729095816612244,1.3728190660476685,0.3071865737438202,0
6.5948286056518555,-6.283283233642578,0.17477671802043915,-0.5252264738082886,1.2716219425201416,0.3055887222290039,0
6.587646007537842,-6.3191962242126465,-0.038307227194309235,-0.5811511874198914,1.1864032745361328,0.3061213493347168,0
6.54455041885376,-6.357503414154053,-0.17717093229293823,-0.675424337387085,1.0820103883743286,0.31144750118255615,0
6.525396823883057,-6.402993202209473,-0.21547815203666687,-0.7771540880203247,0.9743553400039673,0.3263607621192932,0
6.472724437713623,-6.4173583984375,-0.13168109953403473,-0.8800156116485596,0.8657015562057495,0.35299158096313477,0
6.369474411010742,-6.491878032684326,0.035913024097681046,-0.9785496592521667,0.7197646498680115,0.4158403277397156,0
6.273706436157227,-6.633135795593262,0.26575639843940735,-1.044061541557312,0.5977954864501953,0.488808810710907,0
6.335955619812012,-6.721721172332764,0.5940613150596619,-1.074420690536499,0.5013918876647949,0.5484618544578552,0
6.5277910232543945,-6.731297969818115,0.9798270463943481,-0.9812127947807312,0.19726784527301788,0.6970618367195129,0
6.798335552215576,-6.736086368560791,1.3772644996643066,-0.9668321013450623,0.18714812397956848,0.6986597180366516,0
7.095516204833984,-6.7696051597595215,1.7390882968902588,-0.9668321013450623,0.18714812397956848,0.6986597180366516,0
7.3325419425964355,-6.7480573654174805,2.036268472671509,-0.8986572027206421,0.16850654780864716,0.6981270909309387,0
7.447463512420654,-6.649895191192627,2.2230162620544434,-0.8021870255470276,0.17809364199638367,0.68747478723526,0
7.492953300476074,-6.501454830169678,2.3020248413085938,-0.7057834267616272,0.22123558819293976,0.6741593480110168,0
7.49774169921875,-6.379051208496094,2.3092074394226074,-0.6328150033950806,0.26544275879859924,0.6592460870742798,0
7.55280876159668,-6.350320816040039,2.2589292526245117,-0.5284221768379211,0.33841121196746826,0.6331478953361511,0
7.648875713348389,-6.410175800323486,2.2182278633117676,-0.4597146213054657,0.39114025235176086,0.6203650832176208,0
7.80449914932251,-6.558915615081787,2.1535844802856445,-0.3856809437274933,0.4587825536727905,0.6107779741287231,0
8.019977569580078,-6.757634162902832,2.0865468978881836,-0.3121798634529114,0.5147072672843933,0.5974625945091248,0
8.254908561706543,-6.958747386932373,1.9955670833587646,-0.24879848957061768,0.5605123043060303,0.5857450366020203,0
8.614038467407227,-7.217620372772217,1.8827403783798218,-0.1918085217475891,0.5370771884918213,0.5639077425003052,0
9.299378395080566,-7.80449914932251,1.7031751871109009,-0.17902572453022003,0.45665207505226135,0.5234288573265076,0
10.005967140197754,-8.685864448547363,1.5212159156799316,-0.18435189127922058,0.31763917207717896,0.4467321038246155,0
10.45158863067627,-9.505280494689941,1.4086884260177612,-0.22216765582561493,0.17596317827701569,0.36577439308166504,0
10.657489776611328,-9.9772367477417,1.458966612815857,-0.2871468663215637,0.00019973119196947664,0.285881906747818,0
10.70297908782959,-10.087369918823242,1.6648679971694946,-0.3398759067058563,-0.1558569073677063,0.21717438101768494,0
10.592845916748047,-9.799766540527344,2.055422067642212,-0.36757197976112366,-0.31937018036842346,0.13035789132118225,0
10.341156005859375,-9.222464561462402,2.5800516605377197,-0.3601153492927551,-0.48820960521698,0.030758604407310486,0
10.159195899963379,-8.63558578491211,3.1022868156433105,-0.32389742136001587,-0.6144397258758545,-0.06298190355300903,0
10.06582260131836,-8.190264701843262,3.530848979949951,-0.22056981921195984,-0.7539852261543274,-0.24620197713375092,0
9.984419822692871,-7.871536731719971,3.902249574661255,-0.09860063344240189,-0.8067142963409424,-0.43588003516197205,0
9.732728958129883,-7.54083776473999,4.235342979431152,0.06065170466899872,-0.8008555173873901,-0.639872133731842,0
9.31853199005127,-7.198466777801514,4.474762916564941,0.2444044053554535,-0.7257565855979919,-0.8337445855140686,0
8.848969459533691,-6.846219539642334,4.63517427444458,0.45159223675727844,-0.60272216796875,-1.0068449974060059,0
8.456021308898926,-6.6355299949646,4.613626480102539,0.620431661605835,-0.49300315976142883,-1.1314772367477417,0
8.230966567993164,-6.676231384277344,4.400542736053467,0.8249564170837402,-0.37369707226753235,-1.282207727432251,0
8.175899505615234,-6.9707183837890625,4.084208965301514,1.0076438188552856,-0.2836848795413971,-1.42920982837677,0
8.183082580566406,-7.459434509277344,3.6867713928222656,1.1844725608825684,-0.20539024472236633,-1.5868643522262573,0
8.14716911315918,-7.969698905944824,3.3010056018829346,1.3043112754821777,-0.15798737108707428,-1.7013769149780273,0
8.043919563293457,-8.379406929016113,2.967912197113037,1.380475401878357,-0.1340196281671524,-1.7818019390106201,0
7.92899751663208,-8.707711219787598,2.6758196353912354,1.4502482414245605,-0.13029131293296814,-1.8627597093582153,0
7.732673168182373,-8.954314231872559,2.3786394596099854,1.485933542251587,-0.13934579491615295,-1.9224127531051636,0
7.538443088531494,-9.08838939666748,2.055422067642212,1.4726181030273438,-0.1675744652748108,-1.96715247631073,0
7.32775354385376,-9.150638580322266,1.8157026767730713,1.4300087690353394,-0.20112931728363037,-1.9985768795013428,0
7.059603214263916,-9.083600997924805,1.6624737977981567,1.3368008136749268,-0.24480386078357697,-2.0140228271484375,0
6.8342485427856445,-9.040505409240723,1.5379753112792969,1.2318754196166992,-0.2836848795413971,-2.0230772495269775,0
6.647500991821289,-8.916007041931152,1.4517840147018433,1.111504077911377,-0.30871784687042236,-2.025740385055542,0
6.465541839599609,-8.777143478393555,1.437418818473816,1.0081764459609985,-0.31084832549095154,-2.020414113998413,0
6.335955619812012,-8.71489429473877,1.4661492109298706,0.8824790120124817,-0.2954024374485016,-2.006566047668457,0
6.24737024307251,-8.68825912475586,1.514033317565918,0.7615750432014465,-0.23308630287647247,-1.9868593215942383,0
6.2306108474731445,-8.673893928527832,1.5643115043640137,0.6268230676651001,-0.11005188524723053,-1.966619849205017,0
6.156390190124512,-8.597278594970703,1.7462708950042725,0.5554524660110474,-0.02270277962088585,-1.9543696641921997,0
6.017526626586914,-8.482357025146484,2.0602104663848877,0.5027233958244324,0.09607070684432983,-1.9399890899658203,0
5.847239017486572,-8.374618530273438,2.3475148677825928,0.4910058379173279,0.19140906631946564,-1.9181517362594604,0
5.598242282867432,-8.209418296813965,2.5465328693389893,0.520832359790802,0.28781265020370483,-1.8755425214767456,0
5.483320236206055,-8.154352188110352,2.599205255508423,0.5645069479942322,0.3527918756008148,-1.8339983224868774,0
5.411494255065918,-8.18068790435791,2.433706045150757,0.5964639186859131,0.397531658411026,-1.798313021659851,0
5.3226094245910645,-8.226178169250488,2.184709072113037,0.6177685856819153,0.451325923204422,-1.7471818923950195,0
5.226841449737549,-8.264485359191895,1.9258359670639038,0.6097793579101562,0.5083158612251282,-1.6795395612716675,0
5.0807952880859375,-8.211812973022461,1.7055693864822388,0.5959312915802002,0.5498600006103516,-1.6300063133239746,0
4.913201332092285,-8.195053100585938,1.4685434103012085,0.5517241358757019,0.5887410044670105,-1.5389288663864136,0
4.683058738708496,-8.127716064453125,1.3796586990356445,0.5112452507019043,0.5844800472259521,-1.4744821786880493,0
4.3406877517700195,-7.8978729248046875,1.413476824760437,0.46064671874046326,0.5413380861282349,-1.3461216688156128,0
4.079420566558838,-7.639298915863037,1.4876971244812012,0.43135279417037964,0.48860907554626465,-1.237467885017395,0
3.947739362716675,-7.483376502990723,1.5930418968200684,0.40791767835617065,0.4065861403942108,-1.1027159690856934,0
3.9285857677459717,-7.294234752655029,1.7295114994049072,0.39673271775245667,0.32882413268089294,-0.9668986797332764,0
3.9812581539154053,-7.210437774658203,1.8157026767730713,0.39779797196388245,0.22975744307041168,-0.8124399185180664,0
3.9812581539154053,-7.198466777801514,1.9066823720932007,0.405254602432251,0.14560404419898987,-0.6894055008888245,0
3.9740755558013916,-7.124246597290039,2.0147206783294678,0.4659728705883026,-0.0386812724173069,-0.4598477780818939,0
3.921403169631958,-6.977900981903076,2.167949676513672,0.4659728705883026,-0.0386812724173069,-0.4598477780818939,0
3.856759548187256,-6.8557963371276855,2.2804770469665527,0.5064517259597778,-0.1132475882768631,-0.362312376499176,0
3.828029155731201,-6.774393558502197,2.316390037536621,0.5778223276138306,-0.22403182089328766,-0.22063638269901276,0
3.8735191822052,-6.709750175476074,2.3020248413085938,0.643334150314331,-0.30019599199295044,-0.10452599078416824,0
4.005200386047363,-6.707355976104736,2.187103271484375,0.6848782300949097,-0.35505548119544983,-0.008122402243316174,0
4.223371982574463,-6.815094947814941,1.9764134883880615,0.7232266664505005,-0.42589348554611206,0.1255643367767334,0
4.462791919708252,-7.001842975616455,1.7726070880889893,0.7317485213279724,-0.4780898988246918,0.2304897904396057,0
4.704606533050537,-7.198466777801514,1.5619173049926758,0.7173678874969482,-0.5446669459342957,0.339676171541214,0
5.018546104431152,-7.466617107391357,1.413476824760437,0.6939327120780945,-0.5979285836219788,0.4243622124195099,0
5.406705856323242,-7.751826763153076,1.3078327178955078,0.6033879518508911,-0.7273544073104858,0.5793536305427551,0
5.832873821258545,-7.931391716003418,1.2791022062301636,0.6033879518508911,-0.7273544073104858,0.5793536305427551,0
6.089352607727051,-7.9864583015441895,1.2312182188034058,0.5064517259597778,-0.7800834774971008,0.6512568593025208,0
6.285677433013916,-7.914632320404053,1.1785458326339722,0.4366789758205414,-0.7843443751335144,0.6698983907699585,0
6.513425827026367,-7.7661919593811035,1.2144588232040405,0.32269904017448425,-0.7651702165603638,0.6667027473449707,0
6.889315605163574,-7.83801794052124,1.2312182188034058,0.21457788348197937,-0.7358762621879578,0.6342130899429321,0
7.40676212310791,-8.405742645263672,1.1450269222259521,0.14320726692676544,-0.7188325524330139,0.6038539409637451,0
7.869142532348633,-9.23682975769043,0.9463081955909729,0.14320726692676544,-0.7188325524330139,0.6038539409637451,0
8.048707962036133,-9.989208221435547,0.6826467514038086,-0.22110243141651154,-0.5537214279174805,0.46271058917045593,0
8.142380714416504,-10.408493041992188,0.5078700184822083,-0.4890085458755493,-0.3678382933139801,0.4126446545124054,0
8.094197273254395,-10.583269119262695,0.47913962602615356,-0.7270880937576294,-0.1787594109773636,0.37695932388305664,0
7.737461566925049,-10.326790809631348,0.5868787169456482,-0.9157009124755859,0.010852061212062836,0.35405683517456055,0
7.138611793518066,-9.550769805908203,0.8720879554748535,-1.1713569164276123,0.3362807631492615,0.35299158096313477,0
6.556521415710449,-8.724471092224121,1.2384008169174194,-1.212368369102478,0.39380332827568054,0.35512205958366394,0
6.132448196411133,-7.9194207191467285,1.6840215921401978,-1.212368369102478,0.39380332827568054,0.35512205958366394,0
5.636549472808838,-7.164947986602783,2.1320366859436035,-1.542057991027832,1.2258168458938599,0.3924052119255066,0
5.097554683685303,-6.5277910232543945,2.666242837905884,-1.5287425518035889,1.4654942750930786,0.4264926612377167,0
4.60165548324585,-6.058228015899658,3.1669301986694336,-1.4339368343353271,1.606105089187622,0.4989285171031952,0
4.252102375030518,-5.844844818115234,3.5835213661193848,-1.2698909044265747,1.629540205001831,0.6123758554458618,0
4.105756759643555,-5.813720226287842,3.8830959796905518,-0.653054416179657,1.1938599348068237,0.9649679660797119,0
4.187159538269043,-5.921758651733398,4.014777183532715,-0.5976623296737671,1.1347395181655884,0.9969249367713928,0
4.491522312164307,-6.103717803955078,3.9549219608306885,-0.48581284284591675,1.0058462619781494,1.0523170232772827,0
4.9706621170043945,-6.388628005981445,3.7107133865356445,-0.2141784131526947,0.6526549458503723,1.1854711771011353,0
5.545569896697998,-6.712144374847412,3.310582399368286,0.21883881092071533,-0.09780170768499374,1.3511149883270264,0
6.168361186981201,-7.026083946228027,2.8458080291748047,0.21883881092071533,-0.09780170768499374,1.3511149883270264,0
6.817489147186279,-7.342118740081787,2.337938070297241,0.30032914876937866,-0.30871784687042236,1.3628325462341309,0
7.344512939453125,-7.581838130950928,1.820491075515747,0.3424058258533478,-0.464774489402771,1.3500497341156006,0
7.835623741149902,-7.802104949951172,1.3413515090942383,0.3269599676132202,-0.5728956460952759,1.2983858585357666,0
8.101380348205566,-7.852383136749268,0.9343371987342834,0.2230997383594513,-0.580352246761322,1.2041127681732178,0
