AccX,AccY,AccZ,GyroX,GyroY,GyroZ,Label
0.3737947344779968,3.5619735717773438,11.71153736114502,0.27050259709358215,0.1956699937582016,0.1788259893655777,11
0.29478609561920166,3.8711249828338623,11.464634895324707,0.2848832607269287,0.10778826475143433,0.2517944574356079,11
0.36661213636398315,4.069843769073486,11.172542572021484,0.21351264417171478,-0.14733503758907318,0.2960016131401062,11
0.6850409507751465,3.9788639545440674,11.131840705871582,-0.07356765866279602,-0.878617525100708,0.18255430459976196,11
1.247977614402771,3.420715570449829,11.342530250549316,-0.07356765866279602,-0.878617525100708,0.18255430459976196,11
1.921047568321228,2.476801633834839,11.77857494354248,-0.14493827521800995,-1.0692942142486572,0.07869409024715424,11
2.592022657394409,1.4685434103012085,12.240954399108887,-0.16837339103221893,-1.1198928356170654,-0.05286218971014023,11
2.929605007171631,0.5701192617416382,12.576143264770508,-0.12629668414592743,-0.9537164568901062,-0.24353890120983124,11
2.77158784866333,-0.17477671802043915,12.710517883300781,0.03348826244473457,-0.5057859420776367,-0.4507932960987091,11
2.230198860168457,-0.6610989570617676,12.504317283630371,0.2321542203426361,-0.054127153009176254,-0.5461316704750061,11
1.3724761009216309,-0.8888474106788635,11.967716217041016,0.47236427664756775,0.3895424008369446,-0.5455990433692932,11
0.38576576113700867,-0.8720879554748535,10.949881553649902,0.7077807784080505,0.7810155153274536,-0.4406735897064209,11
-0.4743511974811554,-0.7401075959205627,9.67766284942627,0.865967869758606,1.0026506185531616,-0.3015941083431244,11
-1.0732009410858154,-0.4240729808807373,8.441656112670898,1.013502597808838,1.1443265676498413,-0.04220985993742943,11
-1.3509283065795898,0.0694318488240242,7.32775354385376,1.0593076944351196,1.132076382637024,0.1671084314584732,11
-1.3221979141235352,0.5773018598556519,6.3191962242126465,1.024687647819519,1.0186290740966797,0.3178389072418213,11
-1.0301052331924438,0.9726444482803345,5.502473831176758,0.8936639428138733,0.7969940304756165,0.3913399875164032,11
-0.6036381125450134,1.2503718137741089,4.939537525177002,0.8936639428138733,0.7969940304756165,0.3913399875164032,11
-0.16759411990642548,1.4757261276245117,4.680664539337158,0.4595814645290375,0.22070296108722687,0.3412740230560303,11
0.2585737705230713,1.5882534980773926,4.742913722991943,0.07929328083992004,-0.15851998329162598,0.21930484473705292,11
0.6491279602050781,1.5020623207092285,5.20289945602417,-0.24187447130680084,-0.41417592763900757,0.09200949966907501,11
0.943913996219635,1.2886791229248047,6.005555629730225,-0.47409528493881226,-0.5665042400360107,-0.004926702938973904,11
1.0684125423431396,1.0492589473724365,6.872556209564209,-0.7121748328208923,-0.6735601425170898,-0.11091738939285278,11
1.2144588232040405,0.7760206460952759,7.7470383644104,-0.9231575727462769,-0.663440465927124,-0.22063638269901276,11
1.3581109046936035,0.5102642178535461,8.61164379119873,-1.0147676467895508,-0.5782217979431152,-0.2797568142414093,11
1.30543851852417,0.3163338899612427,9.359233856201172,-1.0429962873458862,-0.5041881203651428,-0.3037245571613312,11
1.1330559253692627,0.2298433631658554,9.991601943969727,-1.0334092378616333,-0.11963898688554764,-0.33834463357925415,11
0.8382698893547058,0.2753331959247589,10.386645317077637,-0.9487231373786926,0.14666926860809326,-0.31490951776504517,11
0.5150526165962219,0.4073135554790497,10.509049415588379,-0.8411346077919006,0.34054169058799744,-0.2707023322582245,11
0.21547815203666687,0.6156091094017029,10.415675163269043,-0.8107088804244995,0.38102054595947266,-0.2563216984272003,11
-0.016759412363171577,0.8936358094215393,10.092158317565918,-0.480486661195755,0.6196327209472656,-0.08375394344329834,11
-0.1364694982767105,1.1976994276046753,9.591471672058105,-0.3760938346385956,0.5908714532852173,-0.01983996480703354,11
-0.1628057211637497,1.4948797225952148,9.119514465332031,-0.3073863089084625,0.4918047785758972,0.023301972076296806,11
-0.11252748221158981,1.779789686203003,8.722076416015625,-0.27383145689964294,0.3895424008369446,0.041410934180021286,11
-0.10295066982507706,1.9692308902740479,8.467991828918457,-0.2466680258512497,0.26331228017807007,0.05579157918691635,11
-0.07182604819536209,2.1057004928588867,8.341099739074707,-0.234950453042984,0.1519954353570938,0.057389430701732635,11
-0.023942016065120697,2.251746654510498,8.312369346618652,-0.2237655073404312,0.04227643460035324,0.06005251035094261,11
-0.002394201699644327,2.388216257095337,8.341099739074707,-0.21897196769714355,0.001797580742277205,0.060585130006074905,11
0.05506663769483566,2.5103204250335693,8.384195327758789,-0.21258056163787842,-0.02589847706258297,0.058454662561416626,11
0.17717093229293823,2.618358850479126,8.456021308898926,-0.21258056163787842,-0.039213892072439194,0.0504654161632061,11
0.2777273952960968,2.7332804203033447,8.499116897583008,-0.24187447130680084,-0.054127153009176254,0.023301972076296806,11
0.3809773325920105,2.821866035461426,8.585308074951172,-0.26264652609825134,-0.07756227999925613,0.006790860556066036,11
0.48632222414016724,2.90805721282959,8.801085472106934,-0.2908751964569092,-0.1127149686217308,-0.009720250964164734,11
0.5964555144309998,2.9343934059143066,9.07641887664795,-0.3212343454360962,-0.17236801981925964,-0.03209014609456062,11
0.756866991519928,2.9319992065429688,9.459790229797363,-0.33508235216140747,-0.22456443309783936,-0.06777545064687729,11
0.9463081955909729,2.857779026031494,9.823708534240723,-0.32762572169303894,-0.23574937880039215,-0.0981345921754837,11
1.1426327228546143,2.769193649291992,10.219051361083984,-0.23974400758743286,-0.20645546913146973,-0.21797330677509308,11
1.3006501197814941,2.685396432876587,10.585663795471191,-0.22642859816551208,-0.19100959599018097,-0.23022349178791046,11
1.3652935028076172,2.6087820529937744,10.906486511230469,-0.1609167605638504,-0.1340196281671524,-0.28401774168014526,11
1.3198037147521973,2.4863784313201904,11.100716590881348,-0.08155690133571625,-0.05892070010304451,-0.3340837061405182,11
1.224035620689392,2.364274263381958,11.189301490783691,0.016444534063339233,0.013515143655240536,-0.3884771764278412,11
1.025316834449768,2.2828712463378906,11.165359497070312,0.12456568330526352,0.031091488897800446,-0.4278907775878906,11
0.8577227592468262,2.256535053253174,11.009736061096191,0.18528397381305695,0.01031944528222084,-0.4422714412212372,11
0.756866991519928,2.2014684677124023,10.846631050109863,0.2119147926568985,-0.034952957183122635,-0.44440189003944397,11
0.7018003463745117,2.1344308853149414,10.772411346435547,0.20712125301361084,-0.09833431988954544,-0.4310864806175232,11
0.7065888047218323,2.1080946922302246,10.856208801269531,0.18688182532787323,-0.17396587133407593,-0.4076513648033142,11
0.773626446723938,2.1080946922302246,11.076774597167969,0.17516425251960754,-0.22616228461265564,-0.3852814733982086,11
0.884058952331543,2.122459888458252,11.349713325500488,0.17569686472415924,-0.23415152728557587,-0.36124715209007263,11
0.9965864419937134,2.232593059539795,11.5343656539917,0.18315351009368896,-0.20539024472236633,-0.35805144906044006,11
1.2168530225753784,2.297236442565918,11.560702323913574,0.223632350564003,-0.08874722570180893,-0.3884771764278412,11
1.5762825012207031,2.1942858695983887,11.42872142791748,0.20765386521816254,-0.14893288910388947,-0.43747788667678833,11
1.9066823720932007,2.0889410972595215,11.227608680725098,0.13521802425384521,-0.31191354990005493,-0.5408055186271667,11
2.3307554721832275,1.944989562034607,11.062409400939941,0.027629481628537178,-0.4780898988246918,-0.6569159030914307,11
2.814683437347412,1.6385318040847778,11.004947662353516,-0.09167661517858505,-0.6336139440536499,-0.7682327628135681,11
3.207631826400757,1.1354501247406006,11.11987018585205,-0.3121798634529114,-0.8104426264762878,-0.9493223428726196,11
3.401561975479126,0.5150526165962219,11.349713325500488,-0.3121798634529114,-0.8104426264762878,-0.9493223428726196,11
3.267486810684204,-0.035913024097681046,11.742661476135254,-0.5997927784919739,-0.6187006831169128,-1.2182936668395996,11
2.8505964279174805,-0.5413888692855835,12.159551620483398,-0.614173412322998,-0.2506626546382904,-1.307773232460022,11
2.1152772903442383,-0.9343371987342834,12.367847442626953,-0.3755612075328827,0.5482621192932129,-1.3093711137771606,11
1.2336124181747437,-1.2527660131454468,12.130821228027344,-0.3292235732078552,0.6462635397911072,-1.2955230474472046,11
0.44322657585144043,-1.3988122940063477,11.476605415344238,-0.05971962586045265,1.0447273254394531,-1.1847388744354248,11
-0.040701430290937424,-1.3581109046936035,10.566510200500488,0.2657090723514557,1.267361044883728,-1.001518726348877,11
-0.1843535304069519,-1.204882025718689,9.517251014709473,0.5021907687187195,1.2668284177780151,-0.8582449555397034,11
-0.15801730751991272,-0.9965864419937134,8.592490196228027,0.6678345203399658,1.0740212202072144,-0.7495911717414856,11
0.033518824726343155,-0.7496843934059143,7.773374557495117,0.8095105290412903,0.4428040385246277,-0.6617094278335571,11
0.34267011284828186,-0.5222352743148804,7.11227560043335,0.8095105290412903,0.4428040385246277,-0.6617094278335571,11
0.7329249978065491,-0.3163338899612427,6.6594719886779785,0.7844775319099426,-0.01524614728987217,-0.6830140948295593,11
1.2000936269760132,-0.11971008777618408,6.381445407867432,0.7061828970909119,-0.2954024374485016,-0.7277538776397705,11
1.6600795984268188,0.047884032130241394,6.189908981323242,0.5139083862304688,-0.5633085370063782,-0.8268205523490906,11
2.01232647895813,0.16998831927776337,6.213851451873779,0.28967681527137756,-0.641070544719696,-0.9221588969230652,11
2.2397756576538086,0.32351651787757874,6.412569999694824,0.08568467944860458,-0.6272225379943848,-0.9961926341056824,11
2.234987258911133,0.5078700184822083,6.752845764160156,-0.23175476491451263,-0.4983293116092682,-1.0824764966964722,11
2.117671489715576,0.7018003463745117,7.28226375579834,-0.4192357659339905,-0.35132718086242676,-1.1218900680541992,11
1.9521721601486206,0.8310872912406921,7.907449722290039,-0.60724937915802,-0.1457371860742569,-1.153847098350525,11
1.6888099908828735,0.9056068062782288,8.618826866149902,-0.7228271961212158,0.03055887296795845,-1.1682277917861938,11
1.3557167053222656,0.9870096445083618,9.260771751403809,-0.744131863117218,0.1653108447790146,-1.1591732501983643,11
1.0109516382217407,1.125873327255249,9.763854026794434,-0.7004572749137878,0.20365923643112183,-1.1469230651855469,11
0.6778583526611328,1.326986312866211,10.120888710021973,-0.5981948971748352,0.19939830899238586,-1.1213574409484863,11
0.44083237648010254,1.4996681213378906,10.362703323364258,-0.41177913546562195,0.15465852618217468,-1.07661771774292,11
0.34027591347694397,1.6241666078567505,10.403704643249512,0.013781452551484108,0.002862813649699092,-1.0105732679367065,11
0.34027591347694397,1.7031751871109009,10.209474563598633,0.05958647280931473,-0.015778765082359314,-1.0132362842559814,11
0.39534255862236023,1.7893664836883545,9.771036148071289,0.05958647280931473,-0.015778765082359314,-1.0132362842559814,11
0.4073135554790497,1.8851345777511597,9.275436401367188,0.11923952400684357,-0.049333605915308,-1.029214859008789,11
0.3330933153629303,2.005143880844116,8.822632789611816,0.14107680320739746,-0.07489919662475586,-1.0558456182479858,11
0.18914192914962769,2.0649988651275635,8.456021308898926,0.12296783924102783,-0.06744256615638733,-1.0643675327301025,11
0.026336219161748886,2.0673930644989014,8.223783493041992,0.07023879885673523,-0.041344355791807175,-1.0505194664001465,11
-0.10295066982507706,2.009932279586792,8.113350868225098,0.03135779872536659,-0.020039696246385574,-1.0244213342666626,11
-0.2322375625371933,1.9569605588912964,8.108562469482422,-0.009653674438595772,-0.005126433912664652,-0.9796814918518066,11
-0.2899976670742035,1.944989562034607,8.223783493041992,-0.03202356770634651,-0.01045259926468134,-0.9290829300880432,11
-0.2828150689601898,1.9569605588912964,8.36264705657959,-0.03415403515100479,-0.033887725323438644,-0.8816800713539124,11
-0.24660277366638184,1.9716250896453857,8.527847290039062,-0.03415403515100479,-0.033887725323438644,-0.8816800713539124,11
-0.18914192914962769,2.0027496814727783,8.642768859863281,-0.03202356770634651,-0.043474823236465454,-0.8641037344932556,11
-0.16519992053508759,2.053027868270874,8.702624320983887,0.028162097558379173,-0.1031278744339943,-0.7714284658432007,11
-0.181959331035614,2.146401882171631,8.743624687194824,0.03561872988939285,-0.14680242538452148,-0.7405366897583008,11
-0.1843535304069519,2.2637176513671875,8.846575736999512,0.026031631976366043,-0.186748668551445,-0.7101775407791138,11
-0.20350714027881622,2.3786394596099854,9.069235801696777,0.009520520456135273,-0.20752070844173431,-0.678753137588501,11
-0.2322375625371933,2.450465440750122,9.308955192565918,-0.0016644266434013844,-0.21124902367591858,-0.6404047608375549,11
-0.2852092683315277,2.4839842319488525,9.58668327331543,-0.00113181013148278,-0.20485763251781464,-0.5285553336143494,11
-0.37140053510665894,2.551321268081665,9.895833969116211,0.002063889056444168,-0.19633576273918152,-0.5179029703140259,11
-0.41210195422172546,2.663848638534546,10.207080841064453,0.020172851160168648,-0.17130278050899506,-0.46996748447418213,11
-0.4192845821380615,2.793135643005371,10.51862621307373,0.06651048362255096,-0.11005188524723053,-0.39433595538139343,11
-0.34027591347694397,2.8912978172302246,10.803535461425781,0.13415278494358063,-0.04081173986196518,-0.3133116662502289,11
-0.17956513166427612,2.9176340103149414,10.990582466125488,0.1916753649711609,0.00019973119196947664,-0.27443066239356995,11
0.0,2.8529906272888184,11.03128433227539,0.2438717782497406,0.035352420061826706,-0.2712349593639374,11
0.20111294090747833,2.6542718410491943,11.028889656066895,0.2758287787437439,0.04227643460035324,-0.28614822030067444,11
0.36900633573532104,2.3810336589813232,11.033679008483887,0.2976660430431366,0.038548119366168976,-0.3244965970516205,11
0.37140053510665894,2.12485408782959,11.05522632598877,0.3083183765411377,0.06571156531572342,-0.36018192768096924,11
0.10773907601833344,2.0841526985168457,11.12226390838623,0.32323163747787476,0.12270152568817139,-0.3511274456977844,11
-0.3163338899612427,2.297236442565918,11.191696166992188,0.32323163747787476,0.12270152568817139,-0.3511274456977844,11
-0.5773018598556519,2.5872342586517334,11.165359497070312,0.35359078645706177,0.14879973232746124,-0.22063638269901276,11
-0.491110622882843,2.7572224140167236,11.036072731018066,0.30192697048187256,-0.03974650800228119,-0.1290263533592224,11
-0.11252748221158981,2.8098950386047363,10.995370864868164,0.22043666243553162,-0.23574937880039215,-0.10665645450353622,11
0.45759180188179016,2.7213094234466553,11.198878288269043,0.05106460675597191,-0.5414712429046631,-0.1423417627811432,11
1.1378443241119385,2.278082847595215,11.560702323913574,-0.14493827521800995,-0.703386664390564,-0.2999962568283081,11
1.7390882968902588,1.4853029251098633,11.986869812011719,-0.17316694557666779,-0.6890060305595398,-0.34633389115333557,11
1.9764134883880615,0.5892729163169861,12.43727970123291,-0.2024608552455902,-0.5830153226852417,-0.4625108540058136,11
1.820491075515747,-0.07661445438861847,12.775160789489746,-0.16411246359348297,-0.40831711888313293,-0.5296205282211304,11
1.3724761009216309,-0.5006874203681946,12.823044776916504,-0.041078049689531326,-0.11963898688554764,-0.5605123043060303,11
0.7161656022071838,-0.7592611908912659,12.537836074829102,0.1693054735660553,0.22389866411685944,-0.49819618463516235,11
0.016759412363171577,-0.8119336366653442,11.859977722167969,0.33441659808158875,0.4172384738922119,-0.40072736144065857,11
-0.5342062711715698,-0.6539163589477539,10.908881187438965,0.5400065779685974,0.5951323509216309,-0.237680122256279,11
-0.8577227592468262,-0.3378817141056061,9.775824546813965,0.7120416760444641,0.6872750520706177,-0.0768299326300621,11
-0.9343371987342834,0.08140286058187485,8.738836288452148,0.8217607140541077,0.6489266157150269,0.052063263952732086,11
-0.8577227592468262,0.5150526165962219,7.775768756866455,0.8553155660629272,0.4912721514701843,0.12876003980636597,11
-0.5892729163169861,0.9032126069068909,6.999448776245117,0.8079126477241516,0.24094238877296448,0.15006470680236816,11
-0.1628057211637497,1.1354501247406006,6.4508771896362305,0.6790194511413574,-0.07170350104570389,0.1037270650267601,11
0.3067570924758911,1.1737574338912964,6.108506202697754,0.41857001185417175,-0.4333501160144806,-0.0347532257437706,11
0.7185598015785217,1.025316834449768,6.05583381652832,0.13947895169258118,-0.6208311319351196,-0.19080986082553864,11
0.9846154451370239,0.7377133965492249,6.422146797180176,-0.1513296663761139,-0.6778210997581482,-0.33674678206443787,11
1.0013748407363892,0.4671685993671417,7.0715742111206055,-0.41284435987472534,-0.6250920295715332,-0.43374958634376526,11
0.7712322473526001,0.3306991159915924,7.814075946807861,-0.6184343695640564,-0.47116589546203613,-0.470500111579895,11
0.44083237648010254,0.26336219906806946,8.637980461120605,-0.7222945690155029,-0.31244614720344543,-0.45718470215797424,11
0.07422025501728058,0.2801215946674347,9.500492095947266,-0.7654365301132202,-0.06584471464157104,-0.36976900696754456,11
-0.24181437492370605,0.32112228870391846,10.13525390625,-0.698326826095581,0.11737536638975143,-0.25259336829185486,11
-0.44083237648010254,0.4935048222541809,10.525808334350586,-0.5848795175552368,0.23295314610004425,-0.1519288569688797,11
-0.5198410153388977,0.7233482003211975,10.626364707946777,-0.33614760637283325,0.3224327266216278,-0.01664426550269127,11
-0.44322657585144043,0.9343371987342834,10.386645317077637,-0.11724220961332321,0.2926062047481537,0.061650361865758896,11
-0.30196869373321533,1.1617863178253174,9.910199165344238,0.07183665037155151,0.20206138491630554,0.10479229688644409,11
-0.1604115068912506,1.4254478216171265,9.285013198852539,0.19220797717571259,0.09766855090856552,0.10905323177576065,11
-0.05985504388809204,1.657685399055481,8.66431713104248,0.286481112241745,-0.01950708031654358,0.09041165560483932,11
0.026336219161748886,1.8683751821517944,8.089408874511719,0.3163076341152191,-0.10792142152786255,0.054193731397390366,11
0.08858546614646912,2.009932279586792,7.610568523406982,0.2784918546676636,-0.15425905585289001,-0.01877473294734955,11
0.13407529890537262,2.0697872638702393,7.291840553283691,0.07449973374605179,-0.13242177665233612,-0.13435252010822296,11
0.15801730751991272,2.100912094116211,7.064391613006592,0.04840152710676193,-0.12922608852386475,-0.14500483870506287,11
0.1412578970193863,2.1535844802856445,7.026083946228027,-0.07463289052248001,-0.10632357001304626,-0.1828206181526184,11
0.10773907601833344,2.160767078399658,7.243956565856934,-0.2141784131526947,-0.07596442848443985,-0.22383208572864532,11
0.05746084079146385,2.117671489715576,7.632116317749023,-0.3404085338115692,-0.034952957183122635,-0.2488650679588318,11
0.026336219161748886,2.0626046657562256,8.168717384338379,-0.38035476207733154,-0.021104929968714714,-0.25419121980667114,11
0.016759412363171577,2.0410568714141846,8.736441612243652,-0.4037899076938629,-0.01045259926468134,-0.24460414052009583,11
0.033518824726343155,2.074575662612915,9.244012832641602,-0.37822431325912476,-0.022170161828398705,-0.2259625494480133,11
0.0933738648891449,2.139219284057617,9.644144058227539,-0.3196364939212799,-0.05892070010304451,-0.20891882479190826,11
0.181959331035614,2.2373814582824707,9.965266227722168,-0.2567877471446991,-0.09567124396562576,-0.19134248793125153,11
0.29239189624786377,2.3570916652679443,10.154407501220703,-0.16943863034248352,-0.13987840712070465,-0.17589659988880157,11
0.4240729808807373,2.474407434463501,10.195109367370605,-0.07836120575666428,-0.16118307411670685,-0.16684211790561676,11
0.5078700184822083,2.618358850479126,10.140042304992676,0.0025965054519474506,-0.16970492899417877,-0.16843996942043304,11
0.6060323119163513,2.769193649291992,10.080187797546387,0.04786890745162964,-0.17503109574317932,-0.18069015443325043,11
0.6706757545471191,2.9128456115722656,10.032303810119629,0.04786890745162964,-0.17503109574317932,-0.18069015443325043,11
0.6826467514038086,2.9774889945983887,10.003573417663574,0.09314130991697311,-0.1233673021197319,-0.2169080674648285,11
0.6874351501464844,3.0229790210723877,10.00836181640625,0.11338073760271072,-0.07330134510993958,-0.24513675272464752,11
0.6323685050010681,3.018190622329712,10.046669006347656,0.12935923039913177,-0.032822493463754654,-0.2888112962245941,11
0.5054758191108704,2.9535470008850098,10.080187797546387,0.15066389739513397,-0.01524614728987217,-0.32769230008125305,11
0.3306991159915924,2.836231231689453,10.173561096191406,0.15066389739513397,-0.01524614728987217,-0.32769230008125305,11
0.21547815203666687,2.70455002784729,10.310030937194824,0.20499077439308167,-0.10845403373241425,-0.34899696707725525,11
0.14604631066322327,2.551321268081665,10.422858238220215,0.23854562640190125,-0.19207483530044556,-0.3335510790348053,11
0.17238251864910126,2.3977930545806885,10.504261016845703,0.2641112208366394,-0.2820870280265808,-0.30585503578186035,11
0.26096799969673157,2.254140853881836,10.544961929321289,0.2742309272289276,-0.3369465172290802,-0.2813546657562256,11
0.3522469103336334,2.1703438758850098,10.590452194213867,0.28168755769729614,-0.33162036538124084,-0.25152814388275146,11
0.34267011284828186,2.230198860168457,10.580875396728516,0.2848832607269287,-0.19047698378562927,-0.2041252851486206,11
0.2852092683315277,2.3714568614959717,10.513837814331055,0.2848832607269287,-0.19047698378562927,-0.2041252851486206,11
0.32351651787757874,2.4456770420074463,10.398916244506836,0.2635785937309265,-0.24427124857902527,-0.17696183919906616,11
0.48392802476882935,2.455253839492798,10.34594440460205,0.1687728613615036,-0.5345472693443298,-0.14393961429595947,11
0.7855974435806274,2.4815900325775146,10.477924346923828,0.06757572293281555,-0.8519867062568665,-0.1295589655637741,11
1.245583415031433,2.3738510608673096,10.88015079498291,-0.061317477375268936,-1.1625021696090698,-0.12583065032958984,11
1.8180968761444092,2.0865468978881836,11.423933029174805,-0.17316694557666779,-1.3910611867904663,-0.13222205638885498,11
2.570474863052368,1.6696563959121704,12.041936874389648,-0.24826587736606598,-1.4981170892715454,-0.15778763592243195,11
3.3249475955963135,1.18094003200531,12.50671100616455,-0.3009949028491974,-1.4358009099960327,-0.2712349593639374,11
3.8926727771759033,0.5844845175743103,12.720094680786133,-0.3009949028491974,-1.4358009099960327,-0.2712349593639374,11
3.9166147708892822,0.05746084079146385,12.633903503417969,-0.16943863034248352,-0.565438985824585,-0.6574485301971436,11
3.3297359943389893,-0.21547815203666687,12.22419548034668,-0.028827868402004242,0.03055887296795845,-0.8396033644676208,11
2.342726469039917,-0.22026655077934265,11.512818336486816,0.3195033371448517,1.0351401567459106,-0.9413331151008606,11
1.326986312866211,-0.19632454216480255,10.509049415588379,0.3195033371448517,1.0351401567459106,-0.9413331151008606,11
0.5701192617416382,-0.20111294090747833,9.419088363647461,0.36530834436416626,1.0926628112792969,-0.9152349233627319,11
0.06224924325942993,-0.17238251864910126,8.355464935302734,0.4547879099845886,1.0745538473129272,-0.81670081615448,11
-0.1867477297782898,-0.040701430290937424,7.45225191116333,0.4691685736179352,0.8726255893707275,-0.7288191318511963,11
-0.2899976670742035,0.12449848651885986,6.80551815032959,0.44040727615356445,0.5493273735046387,-0.6515897512435913,11
-0.19153612852096558,0.32112228870391846,6.4053874015808105,0.3727649748325348,0.17702841758728027,-0.5876757502555847,11
0.14844051003456116,0.5150526165962219,6.218639850616455,0.26996999979019165,-0.17130278050899506,-0.5461316704750061,11
0.6970119476318359,0.6491279602050781,6.197092056274414,0.167707622051239,-0.3689035177230835,-0.539740264415741,11
1.2934675216674805,0.6706757545471191,6.271312236785889,0.021238083019852638,-0.4631766378879547,-0.5578492283821106,11
1.7606360912322998,0.7065888047218323,6.3407440185546875,-0.18648235499858856,-0.3891429305076599,-0.6137739419937134,11
2.0147206783294678,0.862511157989502,6.537367820739746,-0.3819526135921478,-0.24427124857902527,-0.6830140948295593,11
2.079364061355591,1.1330559253692627,6.925228595733643,-0.5369440317153931,-0.12496514618396759,-0.7400040626525879,11
1.9138649702072144,1.4062942266464233,7.382820129394531,-0.720696747303009,0.08541837334632874,-0.8241574764251709,11
1.6864157915115356,1.578676700592041,7.969698905944824,-0.7941977977752686,0.19886569678783417,-0.8672994375228882,11
1.346139907836914,1.6744447946548462,8.54221248626709,-0.8336780071258545,0.27875816822052,-0.9136370420455933,11
0.9846154451370239,1.7917606830596924,8.971074104309082,-0.8112415075302124,0.3112477660179138,-0.9344090819358826,11
0.6371569037437439,1.921047568321228,9.332897186279297,-0.7510558366775513,0.2947366535663605,-0.9354743361473083,11
0.34506431221961975,2.0458452701568604,9.65372085571289,-0.6695655584335327,0.2372140735387802,-0.9136370420455933,11
0.1628057211637497,2.1057004928588867,9.881468772888184,-0.568901002407074,0.15146282315254211,-0.8795495629310608,11
0.06224924325942993,2.0817582607269287,10.022727012634277,-0.48421499133110046,0.08488575369119644,-0.8427990674972534,11
0.0454898327589035,1.988384485244751,10.16637897491455,-0.3329519033432007,-0.005659050308167934,-0.7895374298095703,11
0.10534487664699554,1.877951979637146,10.159195899963379,-0.2253633588552475,-0.04613790661096573,-0.7538520693778992,11
0.22026655077934265,1.7965490818023682,9.989208221435547,-0.09966586530208588,-0.046670522540807724,-0.7197646498680115,11
0.29957449436187744,1.755847692489624,9.725546836853027,0.004194355104118586,-0.011517832055687904,-0.6899381279945374,11
0.2899976670742035,1.7893664836883545,9.364022254943848,0.08621729910373688,0.058787547051906586,-0.6489266157150269,11
0.2106897532939911,1.9138649702072144,9.023746490478516,0.11391335725784302,0.10885349661111832,-0.6175022721290588,11
0.1173158809542656,2.076969861984253,8.736441612243652,0.12935923039913177,0.14986497163772583,-0.5748929381370544,11
0.033518824726343155,2.2206220626831055,8.539817810058594,0.12882661819458008,0.142940953373909,-0.524294376373291,11
-0.040701430290937424,2.3738510608673096,8.460809707641602,0.12190260738134384,0.10405994951725006,-0.4912721514701843,11
-0.08140286058187485,2.5055320262908936,8.465598106384277,0.11125027388334274,0.041743818670511246,-0.4507932960987091,11
-0.10055647045373917,2.6470892429351807,8.539817810058594,0.10858719050884247,-0.03015941008925438,-0.40285781025886536,11
-0.08140286058187485,2.7811646461486816,8.71489429473877,0.1048588752746582,-0.11963898688554764,-0.3420729637145996,11
-0.033518824726343155,2.900874614715576,8.87291145324707,0.11444596946239471,-0.1654440015554428,-0.28561559319496155,11
0.05267243832349777,2.9583353996276855,9.042900085449219,0.1256309151649475,-0.18408557772636414,-0.24353890120983124,11
0.16759411990642548,3.0253732204437256,9.244012832641602,0.13947895169258118,-0.2187056541442871,-0.19666863977909088,11
0.3139396905899048,3.109469413757324,9.452607154846191,0.15013128519058228,-0.21497733891010284,-0.1742987483739853,11
0.4528034031391144,3.138199806213379,9.641749382019043,0.15013128519058228,-0.21497733891010284,-0.1742987483739853,11
0.5796960592269897,3.095104217529297,9.82640266418457,0.1581205278635025,-0.20006407797336578,-0.16843996942043304,11
0.6036381125450134,3.0493152141571045,9.962871551513672,0.23055636882781982,-0.007256899960339069,-0.1844184696674347,11
0.491110622882843,2.994248390197754,10.084976196289062,0.2428065538406372,0.016178226098418236,-0.19134248793125153,11
0.3259107172489166,2.9774889945983887,10.207080841064453,0.24546962976455688,0.030026255175471306,-0.1934729516506195,11
0.1867477297782898,3.0014309883117676,10.286088943481445,0.305655300617218,0.06517894566059113,-0.18175537884235382,11
0.1173158809542656,2.970306396484375,10.374674797058105,0.3088510036468506,0.02416747435927391,-0.16897258162498474,11
0.1388636976480484,2.881721019744873,10.398916244506836,0.29233989119529724,-0.006191667169332504,-0.16471165418624878,11
0.17238251864910126,2.769193649291992,10.57608699798584,0.25132840871810913,-0.049866221845149994,-0.15725502371788025,11
0.07900865375995636,2.723703622817993,10.93761157989502,0.21564310789108276,-0.1127149686217308,-0.10718907415866852,11
-0.13407529890537262,2.8721442222595215,11.423933029174805,0.2321542203426361,-0.09460600465536118,-0.02516612969338894,11
-0.34985271096229553,3.1717185974121094,11.831247329711914,0.2981986701488495,-0.045605290681123734,0.08615072071552277,11
-0.27054479718208313,3.5236663818359375,11.982081413269043,0.38661301136016846,-0.34120744466781616,0.2533923089504242,11
0.18914192914962769,3.746626377105713,11.843217849731445,0.37702590227127075,-0.38647985458374023,0.2507292330265045,11
0.8601169586181641,3.830423355102539,11.591826438903809,0.3424058258533478,-0.4972640872001648,0.2326202541589737,11
1.5858592987060547,3.660435199737549,11.464634895324707,0.2209692746400833,-0.7353436946868896,0.11970555782318115,11
2.4384944438934326,3.042132616043091,11.438298225402832,0.07023879885673523,-0.8961938619613647,-0.07523208111524582,11
3.0062196254730225,1.9979612827301025,11.527183532714844,-0.04906729608774185,-0.9137701988220215,-0.26324570178985596,11
3.0541036128997803,0.9343371987342834,11.682806015014648,-0.17583002150058746,-0.7124411463737488,-0.5429359674453735,11
2.637512445449829,0.038307227194309235,11.833641052246094,-0.14120995998382568,0.1418757289648056,-0.7820807695388794,11
1.8444331884384155,-0.6610989570617676,11.800122261047363,-0.14120995998382568,0.1418757289648056,-0.7820807695388794,11
0.7520785927772522,-1.082777738571167,11.53197193145752,-0.0970027819275856,0.2947366535663605,-0.753319501876831,11
-0.34267011284828186,-1.2312182188034058,11.019312858581543,0.05319507420063019,0.6515897512435913,-0.5967302322387695,11
-1.2216414213180542,-1.104325532913208,10.195109367370605,0.23961085081100464,0.9551811218261719,-0.3532578945159912,11
-1.7750012874603271,-0.7903858423233032,9.174580574035645,0.4329506456851959,1.1416635513305664,-0.07576470077037811,11
-1.944989562034607,-0.3139396905899048,8.115745544433594,0.5964639186859131,1.1411309242248535,0.210782989859581,11
-1.8133084774017334,0.24660277366638184,7.0931220054626465,0.5964639186859131,1.1411309242248535,0.210782989859581,11
-1.4876971244812012,0.81672203540802,6.28088903427124,0.6135076284408569,0.7186993956565857,0.4323514401912689,11
-0.9941922426223755,1.245583415031433,5.761047840118408,0.46970120072364807,0.22336605191230774,0.42702528834342957,11
-0.4528034031391144,1.4876971244812012,5.4881086349487305,-0.010186290368437767,-0.6384074687957764,0.19160878658294678,11
0.021547814831137657,1.4876971244812012,5.531204700469971,-0.010186290368437767,-0.6384074687957764,0.19160878658294678,11
0.44083237648010254,1.2814964056015015,5.960065841674805,-0.29247304797172546,-0.8887372016906738,0.033954303711652756,11
0.6874351501464844,0.9726444482803345,6.683413982391357,-0.5491942167282104,-0.948922872543335,-0.09121058136224747,11
0.7808090448379517,0.6874351501464844,7.49774169921875,-0.7686322331428528,-0.8583781123161316,-0.17003782093524933,11
0.8310872912406921,0.44322657585144043,8.39616584777832,-0.922624945640564,-0.6197658777236938,-0.20092958211898804,11
0.7401075959205627,0.272938996553421,9.306561470031738,-0.9844084978103638,-0.2820870280265808,-0.18654893338680267,11
0.4695627987384796,0.21787235140800476,10.089764595031738,-0.9513862729072571,0.061983246356248856,-0.12210233509540558,11
0.12210428714752197,0.3522469103336334,10.588057518005371,-0.8250895738601685,0.39327073097229004,-0.026763979345560074,11
-0.181959331035614,0.5964555144309998,10.724527359008789,-0.6535870432853699,0.6414700150489807,0.07816147059202194,11
-0.34027591347694397,0.8577227592468262,10.583269119262695,-0.3617132008075714,0.6920685768127441,0.20652204751968384,11
-0.4216787815093994,1.1402385234832764,10.094552993774414,-0.299929678440094,0.6686334609985352,0.22676147520542145,11
-0.4240729808807373,1.4422072172164917,9.526827812194824,-0.299929678440094,0.6686334609985352,0.22676147520542145,11
-0.4264671802520752,1.7486650943756104,8.987833023071289,-0.08049166947603226,0.41510799527168274,0.2954690158367157,11
-0.4528034031391144,2.0219032764434814,8.50869369506836,-0.03894758224487305,0.2936714291572571,0.3045234978199005,11
-0.46477439999580383,2.234987258911133,8.156745910644531,-0.03628449887037277,0.04440690204501152,0.2746969759464264,11
-0.44322657585144043,2.36188006401062,7.902661323547363,-0.03628449887037277,0.04440690204501152,0.2746969759464264,11
-0.39055415987968445,2.3594858646392822,7.7470383644104,-0.07729597389698029,-0.02163754589855671,0.2427399754524231,11
-0.29239189624786377,2.299630641937256,7.735067367553711,-0.1385468691587448,-0.044540055096149445,0.210782989859581,11
-0.2059013396501541,2.2158336639404297,7.8763251304626465,-0.20618917047977448,-0.03122464381158352,0.1889457106590271,11
-0.1843535304069519,2.141613483428955,8.139687538146973,-0.26477697491645813,0.010852061212062836,0.18415215611457825,11
-0.1867477297782898,2.079364061355591,8.463203430175781,-0.3004622757434845,0.06464632600545883,0.19693495333194733,11
-0.1867477297782898,2.0434510707855225,8.827422142028809,-0.30365797877311707,0.08382052183151245,0.2113156020641327,11
-0.2082955539226532,2.074575662612915,9.174580574035645,-0.2860816419124603,0.07583127915859222,0.23475073277950287,11
-0.15562310814857483,2.165555477142334,9.49809741973877,-0.2466680258512497,0.023634858429431915,0.26830556988716125,11
-0.033518824726343155,2.3116016387939453,9.809343338012695,-0.1822214275598526,-0.07489919662475586,0.31091487407684326,11
0.16998831927776337,2.4241292476654053,10.025120735168457,-0.13322070240974426,-0.13615009188652039,0.33381739258766174,11
0.39055415987968445,2.5441386699676514,10.185532569885254,-0.06770887225866318,-0.1776941865682602,0.3492632806301117,11
0.5629366636276245,2.618358850479126,10.22383975982666,0.018575001507997513,-0.16970492899417877,0.3492632806301117,11
0.7018003463745117,2.663848638534546,10.202292442321777,0.08089113235473633,-0.13615009188652039,0.33168694376945496,11
0.8481459617614746,2.752434015274048,10.185532569885254,0.13362017273902893,-0.11218235641717911,0.3039908707141876,11
0.9295487999916077,2.8314428329467773,10.140042304992676,0.17622949182987213,-0.08448629081249237,0.2613815665245056,11
0.9965864419937134,2.857779026031494,10.111311912536621,0.20978432893753052,-0.060518551617860794,0.20545682311058044,11
1.0372878313064575,2.7787704467773438,10.053851127624512,0.2332194596529007,-0.05252930521965027,0.14314068853855133,11
0.9726444482803345,2.6470892429351807,10.001178741455078,0.24706748127937317,-0.058388084173202515,0.054193731397390366,11
0.7879916429519653,2.515108823776245,10.061034202575684,0.24760010838508606,-0.06584471464157104,0.029693370684981346,11
0.5198410153388977,2.4145524501800537,10.202292442321777,0.24919794499874115,-0.06957302987575531,0.019041040912270546,11
0.27054479718208313,2.3235726356506348,10.386645317077637,0.25985029339790344,-0.11750851571559906,0.0025299284607172012,11
0.10773907601833344,2.2828712463378906,10.63354778289795,0.27210044860839844,-0.1776941865682602,0.06537867337465286,11
0.002394201699644327,2.270900249481201,10.911274909973145,0.2955355942249298,-0.26717376708984375,0.14260807633399963,11
0.0,2.3738510608673096,11.239580154418945,0.3397427499294281,-0.3587838113307953,0.22942456603050232,11
0.035913024097681046,2.532167673110962,11.575067520141602,0.389808714389801,-0.42962178587913513,0.30132779479026794,11
0.11013327538967133,2.836231231689453,11.824064254760742,0.47129902243614197,-0.4935357868671417,0.38601380586624146,11
0.43364977836608887,3.0998926162719727,11.919832229614258,0.5485284328460693,-0.6831472516059875,0.454188734292984,11
1.0205284357070923,3.15974760055542,11.922226905822754,0.5495936870574951,-0.9388031959533691,0.47283029556274414,11
