AccX,AccY,AccZ,GyroX,GyroY,GyroZ,Label
1.0468647480010986,3.8256349563598633,10.839448928833008,-0.16357985138893127,-0.03228987753391266,-0.3117138147354126,11
0.81672203540802,3.9716813564300537,11.14381217956543,-0.04267589747905731,0.013515143655240536,-0.3559209704399109,11
0.5030816197395325,4.2329487800598145,11.330559730529785,0.11764167249202728,0.056657079607248306,-0.362312376499176,11
0.29718029499053955,4.426878929138184,11.402385711669922,0.32163378596305847,0.04866783320903778,-0.3314206302165985,11
0.12210428714752197,4.54419469833374,11.27070426940918,0.4350811243057251,0.011384678073227406,-0.3015941083431244,11
0.038307227194309235,4.5609540939331055,10.990582466125488,0.5501262545585632,-0.03122464381158352,-0.2696371078491211,11
0.05506663769483566,4.508281707763672,10.597634315490723,0.6060510277748108,-0.05892070010304451,-0.2557890713214874,11
0.05985504388809204,4.3861775398254395,10.266935348510742,0.588474690914154,-0.07543181627988815,-0.2595174014568329,11
-0.08858546614646912,4.273650169372559,10.027515411376953,0.5234954357147217,-0.06318163126707077,-0.26271310448646545,11
-0.41210195422172546,4.307168960571289,9.998785018920898,0.4350811243057251,0.01031944528222084,-0.237680122256279,11
-0.8577227592468262,4.577713489532471,10.113706588745117,0.3296230435371399,0.08648360520601273,-0.13701559603214264,11
-1.1186907291412354,4.951508522033691,10.353126525878906,0.21937142312526703,0.02629793994128704,-0.023568280041217804,11
-1.0899603366851807,5.200505256652832,10.57608699798584,0.13415278494358063,-0.05679023638367653,0.033954303711652756,11
-0.7233482003211975,5.131073474884033,10.712555885314941,0.13415278494358063,-0.05679023638367653,0.033954303711652756,11
-0.18914192914962769,4.656722068786621,10.973823547363281,-0.2706357538700104,-0.38594722747802734,0.015312724746763706,11
0.3067570924758911,3.8735191822052,11.39280891418457,-0.39153972268104553,-0.41843685507774353,-0.07043853402137756,11
0.613214910030365,3.0086138248443604,11.809699058532715,-0.4836823642253876,-0.33002251386642456,-0.21264714002609253,11
0.6203975081443787,2.1487960815429688,12.104485511779785,-0.4922042489051819,-0.06531210243701935,-0.4001947343349457,11
0.29239189624786377,1.3748703002929688,12.164340019226074,-0.4165726900100708,0.23029007017612457,-0.5354793071746826,11
-0.3139396905899048,0.7879916429519653,12.056302070617676,-0.28501641750335693,0.5349466800689697,-0.6217632293701172,11
-1.1210849285125732,0.46477439999580383,11.627739906311035,-0.15239490568637848,0.7804829478263855,-0.6404047608375549,11
-2.0195090770721436,0.34745851159095764,11.091139793395996,0.09900009632110596,1.1826750040054321,-0.5402728915214539,11
-2.769193649291992,0.32351651787757874,10.28130054473877,0.19859938323497772,1.3291444778442383,-0.44706499576568604,11
-3.3488895893096924,0.512658417224884,9.366415977478027,0.3296230435371399,1.5539087057113647,-0.20039696991443634,11
-3.7155017852783203,0.9175778031349182,8.475174903869629,0.3530581593513489,1.6428556442260742,0.020106272771954536,11
-3.8663365840911865,1.5379753112792969,7.797316551208496,0.30086174607276917,1.5885287523269653,0.22729410231113434,11
-3.7514147758483887,2.299630641937256,7.392396926879883,0.05319507420063019,1.0623036623001099,0.5106461048126221,11
-3.3848025798797607,3.0253732204437256,7.301417350769043,0.028162097558379173,0.9951939582824707,0.5287550687789917,11
-2.886509418487549,3.6170401573181152,7.581838130950928,-0.014447222463786602,0.8582449555397034,0.5623098611831665,11
-2.141613483428955,3.969287157058716,8.101380348205566,-0.05066514387726784,0.7245581746101379,0.587875485420227,11
-1.1857284307479858,4.081814765930176,8.75080680847168,-0.0437411293387413,-0.22722752392292023,0.477623850107193,11
-0.10773907601833344,3.9812581539154053,9.325715065002441,-0.0437411293387413,-0.22722752392292023,0.477623850107193,11
0.9965864419937134,3.5907039642333984,9.65611457824707,0.06438001990318298,-0.39446911215782166,0.2762948274612427,11
1.8061258792877197,2.9152398109436035,9.696816444396973,0.21457788348197937,-0.40458881855010986,-0.08055824786424637,11
2.0626046657562256,2.191891670227051,9.5316162109375,0.32482948899269104,-0.2709020674228668,-0.40552088618278503,11
1.7319056987762451,1.6265608072280884,9.148244857788086,0.4015262722969055,-0.10738880187273026,-0.6270893812179565,11
1.0372878313064575,1.204882025718689,8.63558578491211,0.4702337980270386,0.15678898990154266,-0.830548882484436,11
0.05027823522686958,0.9103952050209045,8.082226753234863,0.4798209071159363,0.3224327266216278,-0.8571797013282776,11
-0.9080010056495667,0.7927800416946411,7.610568523406982,0.4659728705883026,0.4097818434238434,-0.7405366897583008,11
-1.7390882968902588,0.8888474106788635,7.272686958312988,0.44307035207748413,0.4587825536727905,-0.5152398943901062,11
-2.3020248413085938,1.1522095203399658,6.965929985046387,0.4159069061279297,0.46890226006507874,-0.09121058136224747,11
-2.4863784313201904,1.5260043144226074,6.771999359130859,0.4036567509174347,0.4300212562084198,0.09147688746452332,11
-2.2852654457092285,1.921047568321228,6.5732808113098145,0.3802216053009033,0.32882413268089294,0.346600204706192,11
-1.7917606830596924,2.29484224319458,6.3622918128967285,0.3573191165924072,0.22602912783622742,0.48348262906074524,11
-1.1162965297698975,2.5848400592803955,6.1611785888671875,0.3045900762081146,0.05186353251338005,0.5351464152336121,11
-0.5030816197395325,2.773982048034668,6.048651218414307,0.24866533279418945,-0.060518551617860794,0.4754934012889862,11
-0.08858546614646912,2.879326820373535,6.024709224700928,0.15652267634868622,-0.15958522260189056,0.3242303133010864,11
0.09816227108240128,2.8984804153442383,6.130053997039795,0.04254274442791939,-0.1995314657688141,0.11970555782318115,11
-0.009576806798577309,2.797924041748047,6.323984622955322,-0.10392680019140244,-0.17023755609989166,-0.1300915777683258,11
-0.48153382539749146,2.615964651107788,6.57806921005249,-0.19553683698177338,-0.11910636723041534,-0.26537618041038513,11
-1.183334231376648,2.450465440750122,6.953958988189697,-0.3105820119380951,-0.04081173986196518,-0.3751617670059204,11
-1.9473837614059448,2.4001872539520264,7.3325419425964355,-0.3654415011405945,-0.005126433912664652,-0.3842162489891052,11
-2.6255414485931396,2.4863784313201904,7.706336498260498,-0.4160400629043579,0.02097177505493164,-0.32769230008125305,11
-3.0541036128997803,2.532167673110962,8.003217697143555,-0.44320350885391235,0.014580377377569675,-0.2563216984272003,11
-3.3057940006256104,2.474407434463501,8.309974670410156,-0.46504080295562744,-0.036018192768096924,-0.14926578104496002,11
-3.4302923679351807,2.4600422382354736,8.66671085357666,-0.4794214367866516,-0.1334870159626007,-0.0347532257437706,11
-3.377619981765747,2.5800516605377197,9.126696586608887,-0.47622573375701904,-0.25758665800094604,0.08721595257520676,11
-3.176506996154785,2.747645616531372,9.624990463256836,-0.4490622878074646,-0.3800884485244751,0.19800019264221191,11
-2.879326820373535,2.864961624145508,10.096946716308594,-0.3942027986049652,-0.5430691242218018,0.2960016131401062,11
-2.517503023147583,2.8984804153442383,10.561721801757812,-0.33721283078193665,-0.6922017335891724,0.35192635655403137,11
-2.1703438758850098,2.9607295989990234,11.019312858581543,-0.22163504362106323,-0.8455953001976013,0.4105141758918762,11
-1.8635867834091187,3.0253732204437256,11.42872142791748,-0.20192822813987732,-0.8541171550750732,0.4158403277397156,11
-1.4853029251098633,3.0493152141571045,11.749844551086426,-0.08155690133571625,-0.8471931219100952,0.45099303126335144,11
-1.104325532913208,3.090315818786621,11.895890235900879,-0.041078049689531326,-0.8317472338676453,0.46058014035224915,11
-0.8071452379226685,3.1501708030700684,11.874342918395996,-0.018708154559135437,-0.8173666000366211,0.4632432162761688,11
-0.7329249978065491,3.3656489849090576,11.654075622558594,0.2422739416360855,-0.40565404295921326,0.4552539587020874,11
-0.6874351501464844,3.720290184020996,11.313799858093262,0.32269904017448425,-0.2304232120513916,0.4339492917060852,11
-0.5725134611129761,3.9597103595733643,10.889727592468262,0.3482646346092224,-0.1989988386631012,0.39666613936424255,11
-0.5773018598556519,4.12251615524292,10.384251594543457,0.33281874656677246,-0.21391209959983826,0.346600204706192,11
-0.5006874203681946,4.170400142669678,9.91977596282959,0.2784918546676636,-0.3017938435077667,0.2842840552330017,11
-0.309151291847229,4.091391563415527,9.641749382019043,0.17250117659568787,-0.5052533149719238,0.210782989859581,11
-0.06703764945268631,3.8854901790618896,9.510068893432617,0.0521298423409462,-0.6969952583312988,0.1452711522579193,11
0.17717093229293823,3.487753391265869,9.581894874572754,-0.12097052484750748,-0.8898024559020996,0.05898727849125862,11
0.3594295382499695,2.9822773933410645,9.95090103149414,-0.3207017183303833,-0.9606404304504395,-0.012383334338665009,11
0.4240729808807373,2.431311845779419,10.461165428161621,-0.4155074656009674,-0.9057809710502625,-0.03049229457974434,11
0.431255578994751,1.899499773979187,10.973823547363281,-0.47569313645362854,-0.6932669878005981,-0.011318100616335869,11
0.4288613796234131,1.4661492109298706,11.407174110412598,-0.44533398747444153,-0.4621114134788513,0.038215234875679016,11
0.4456208050251007,1.1546037197113037,11.685200691223145,-0.34786516427993774,-0.21337948739528656,0.11278154700994492,11
0.5150526165962219,0.9558850526809692,11.675623893737793,-0.2354830801486969,-0.026431094855070114,0.17509767413139343,11
0.6754641532897949,0.8529343605041504,11.30182933807373,-0.04533898085355759,0.2068549394607544,0.2416747361421585,11
0.9080010056495667,0.8649053573608398,10.66946029663086,0.08142375200986862,0.2883452773094177,0.25871846079826355,11
1.14742112159729,1.0396820306777954,9.941324234008789,0.14959865808486938,0.2904757261276245,0.2427399754524231,11
1.348534107208252,1.2575544118881226,9.23443603515625,0.17303378880023956,0.26277968287467957,0.21717438101768494,11
1.51163911819458,1.4781203269958496,8.614038467407227,0.14480511844158173,0.1956699937582016,0.15485824644565582,11
1.7103577852249146,1.6193782091140747,8.175899505615234,0.08302159607410431,0.12483199685811996,0.0829550251364708,11
1.877951979637146,1.7151461839675903,7.866748332977295,0.019640233367681503,0.08328790962696075,0.01637795753777027,11
1.96683669090271,1.8109142780303955,7.6752119064331055,-0.08049166947603226,0.09553808718919754,-0.08162347972393036,11
1.9354127645492554,1.899499773979187,7.6081743240356445,-0.14600349962711334,0.17649579048156738,-0.15459194779396057,11
1.734299898147583,2.0219032764434814,7.581838130950928,-0.1822214275598526,0.2819538712501526,-0.21158191561698914,11
1.4326304197311401,2.139219284057617,7.562385559082031,-0.1939389854669571,0.39486855268478394,-0.24566936492919922,11
1.0899603366851807,2.2637176513671875,7.471405506134033,-0.18701496720314026,0.47689151763916016,-0.2557890713214874,11
0.773626446723938,2.412158250808716,7.346907138824463,-0.1721017062664032,0.49926140904426575,-0.25152814388275146,11
0.43843817710876465,2.592022657394409,7.217620372772217,-0.1614493727684021,0.45718470215797424,-0.22436471283435822,11
0.21787235140800476,2.797924041748047,7.083545207977295,-0.15612322092056274,0.3543896973133087,-0.1934729516506195,11
0.0694318488240242,3.015796422958374,7.026083946228027,-0.16677553951740265,0.19780045747756958,-0.1625811904668808,11
0.10295066982507706,3.2148144245147705,7.011419773101807,-0.19553683698177338,0.01777607575058937,-0.13648298382759094,11
0.2059013396501541,3.339312791824341,7.0931220054626465,-0.24080924689769745,-0.16224829852581024,-0.1316894292831421,11
0.3977367579936981,3.4063503742218018,7.299023151397705,-0.299929678440094,-0.3049895167350769,-0.14340700209140778,11
0.6634931564331055,3.375225782394409,7.581838130950928,-0.3531913161277771,-0.36251211166381836,-0.16737474501132965,11
0.8768763542175293,3.2866404056549072,7.84998893737793,-0.3973985016345978,-0.3257615864276886,-0.19933173060417175,11
0.9678560495376587,3.1980550289154053,8.127716064453125,-0.426692396402359,-0.23468415439128876,-0.2360822707414627,11
0.9487023949623108,3.1214404106140137,8.410531044006348,-0.4389425814151764,-0.14147625863552094,-0.26111525297164917,11
0.8310872912406921,3.092710018157959,8.712499618530273,-0.4298880994319916,-0.012050448916852474,-0.2786915898323059,11
0.6156091094017029,3.116652011871338,8.966285705566406,-0.39153972268104553,0.09766855090856552,-0.27656111121177673,11
0.36900633573532104,3.1956608295440674,9.102754592895508,-0.323364794254303,0.1962026059627533,-0.265908807516098,11
0.1628057211637497,3.2626984119415283,9.155426979064941,-0.25092896819114685,0.2377467006444931,-0.23927797377109528,11
-0.019153613597154617,3.3680431842803955,9.097966194152832,-0.1827540397644043,0.2185724973678589,-0.2169080674648285,11
-0.17717093229293823,3.473388195037842,8.990227699279785,-0.11990529298782349,0.1306907832622528,-0.1833532303571701,11
-0.26815059781074524,3.5691561698913574,8.944737434387207,-0.09167661517858505,0.0358850359916687,-0.1631138026714325,11
-0.272938996553421,3.64577054977417,8.916007041931152,-0.06983934342861176,-0.0914103090763092,-0.1316894292831421,11
-0.2298433631658554,3.660435199737549,8.980650901794434,-0.06983934342861176,-0.16224829852581024,-0.0874822586774826,11
-0.15801730751991272,3.621828556060791,9.10993766784668,-0.06983934342861176,-0.16224829852581024,-0.0874822586774826,11
-0.08379705995321274,3.5859155654907227,9.356839179992676,-0.07410027086734772,-0.15745475888252258,-0.060851436108350754,11
-0.06224924325942993,3.5930981636047363,9.641749382019043,-0.06185009330511093,-0.1127149686217308,-0.02410089783370495,11
-0.07900865375995636,3.602674961090088,9.929352760314941,-0.030958333984017372,-0.044540055096149445,0.012117025442421436,11
-0.06224924325942993,3.6122517585754395,10.16637897491455,0.010585753247141838,0.032156720757484436,0.043541401624679565,11
-0.07182604819536209,3.6314053535461426,10.326790809631348,0.04999937489628792,0.08595099300146103,0.07017222791910172,11
-0.13168109953403473,3.7059249877929688,10.39652156829834,0.04999937489628792,0.08595099300146103,0.07017222791910172,11
-0.17717093229293823,3.7992987632751465,10.482712745666504,0.04999937489628792,0.08595099300146103,0.07017222791910172,11
-0.2537853717803955,3.9357683658599854,10.497077941894531,0.17729471623897552,0.23029007017612457,0.1351514458656311,11
-0.39055415987968445,4.0435075759887695,10.482712745666504,0.20286031067371368,0.22975744307041168,0.1585865616798401,11
-0.4671685993671417,4.141669750213623,10.48750114440918,0.21830619871616364,0.1962026059627533,0.1788259893655777,11
-0.512658417224884,4.228160381317139,10.497077941894531,0.21351264417171478,0.09766855090856552,0.20811989903450012,11
-0.512658417224884,4.266467571258545,10.590452194213867,0.20445816218852997,0.04227643460035324,0.2219679355621338,11
-0.4695627987384796,4.261679172515869,10.679037094116211,0.19274060428142548,-0.005659050308167934,0.23688119649887085,11
-0.29957449436187744,4.1967363357543945,10.772411346435547,0.16344669461250305,-0.1238999143242836,0.2416747361421585,11
0.0071826050989329815,4.139275550842285,10.896909713745117,0.05585815757513046,-0.4322848618030548,0.22409839928150177,11
0.4192845821380615,4.081814765930176,11.148600578308105,-0.05599131062626839,-0.6623752117156982,0.18095645308494568,11
0.9295487999916077,3.7969045639038086,11.502942085266113,-0.25359204411506653,-0.9329444169998169,0.08987903594970703,11
1.3652935028076172,3.2148144245147705,12.02038860321045,-0.4938020706176758,-0.9654340147972107,-0.13861344754695892,11
1.6912041902542114,2.4025814533233643,12.669816017150879,-0.4938020706176758,-0.9654340147972107,-0.13861344754695892,11
1.854009985923767,1.4733319282531738,13.143868446350098,-0.4698343276977539,-0.7635723352432251,-0.20838621258735657,11
1.7223289012908936,0.6323685050010681,13.239935874938965,-0.3750286102294922,-0.46850278973579407,-0.24513675272464752,11
1.1402385234832764,0.05506663769483566,12.91881275177002,-0.18648235499858856,-0.025365861132740974,-0.24087581038475037,11
0.3043628931045532,-0.14844051003456116,12.188282012939453,0.05266245827078819,0.4108470678329468,-0.17642922699451447,11
-0.6156091094017029,-0.011971008032560349,11.220426559448242,0.34560152888298035,0.8092442154884338,0.0009320789249613881,11
-1.3174095153808594,0.2828150689601898,10.06582260131836,0.5543872117996216,1.0138355493545532,0.20385897159576416,11
-1.6409260034561157,0.5988497138023376,8.853757858276367,0.6720954775810242,1.0580426454544067,0.3615134656429291,11
-1.7486650943756104,0.9582792520523071,7.732673168182373,0.765303373336792,0.9621051549911499,0.5452661514282227,11
-1.612195611000061,1.348534107208252,6.819883346557617,0.7711621522903442,0.8939302563667297,0.5900059342384338,11
-1.3293805122375488,1.7390882968902588,6.1396307945251465,0.7711621522903442,0.8939302563667297,0.5900059342384338,11
-0.943913996219635,2.0626046657562256,5.715558052062988,0.544267475605011,0.061983246356248856,0.6097127795219421,11
-0.47913962602615356,2.230198860168457,5.483320236206055,0.32163378596305847,-0.3667730391025543,0.5053198933601379,11
0.002394201699644327,2.1942858695983887,5.562329292297363,0.05053199082612991,-0.7284196615219116,0.36257869005203247,11
0.46238020062446594,1.9788076877593994,5.995978832244873,-0.299929678440094,-0.9617056846618652,0.17083674669265747,11
0.7185598015785217,1.6385318040847778,6.692990779876709,-0.5156393647193909,-1.0011192560195923,0.06324820965528488,11
0.8239046335220337,1.3126211166381836,7.512106895446777,-0.7766214609146118,-0.8738239407539368,-0.05818835273385048,11
0.8744821548461914,0.9894038438796997,8.403348922729492,-0.9093095660209656,-0.6405379176139832,-0.12636326253414154,11
0.7377133965492249,0.7544727921485901,9.239224433898926,-0.9476579427719116,-0.39606696367263794,-0.15405932068824768,11
0.39294835925102234,0.6036381125450134,9.912593841552734,-0.8810808658599854,-0.007256899960339069,-0.1418091505765915,11
-0.05027823522686958,0.553359866142273,10.305242538452148,-0.7308164238929749,0.2883452773094177,-0.07363422960042953,11
-0.5318120718002319,0.6467337608337402,10.341156005859375,-0.5438680648803711,0.49872878193855286,0.029693370684981346,11
-0.9103952050209045,0.8577227592468262,10.084976196289062,-0.3931375741958618,0.5695667862892151,0.13035789132118225,11
-1.1330559253692627,1.1569979190826416,9.603442192077637,-0.2258959710597992,0.5503925681114197,0.2651098668575287,11
-1.1115081310272217,1.51163911819458,9.095572471618652,-0.09860063344240189,0.4406735897064209,0.38388335704803467,11
-1.0181342363357544,1.8468273878097534,8.630797386169434,0.008455286733806133,0.24467070400714874,0.4866783320903778,11
-0.8816647529602051,2.146401882171631,8.257302284240723,0.05958647280931473,0.07476603984832764,0.5330159664154053,11
-0.6802525520324707,2.412158250808716,7.972093105316162,0.07609758526086807,-0.059453319758176804,0.5410051941871643,11
-0.45998600125312805,2.618358850479126,7.75900936126709,0.061184320598840714,-0.15106335282325745,0.5154396295547485,11
-0.2537853717803955,2.8051066398620605,7.639298915863037,0.0414775125682354,-0.1760963350534439,0.496798038482666,11
-0.10534487664699554,2.972700595855713,7.668029308319092,0.0414775125682354,-0.1760963350534439,0.496798038482666,11
-0.05267243832349777,3.109469413757324,7.88350772857666,-0.1614493727684021,-0.21550995111465454,0.3711005449295044,11
-0.06703764945268631,3.181295394897461,8.218995094299316,-0.2040587067604065,-0.1984662264585495,0.350861132144928,11
-0.1412578970193863,3.181295394897461,8.626008987426758,-0.2040587067604065,-0.1984662264585495,0.350861132144928,11
-0.14365209639072418,3.1884782314300537,9.090784072875977,-0.29353827238082886,-0.15905261039733887,0.35299158096313477,11
-0.0694318488240242,3.248333215713501,9.519645690917969,-0.28554901480674744,-0.1649113893508911,0.3721657991409302,11
0.07900865375995636,3.332130193710327,9.912593841552734,-0.23388522863388062,-0.17130278050899506,0.39719876646995544,11
0.2852092683315277,3.3919851779937744,10.264541625976562,-0.17955833673477173,-0.18461820483207703,0.4041227698326111,11
0.5030816197395325,3.4350810050964355,10.559327125549316,-0.06238270923495293,-0.21391209959983826,0.3913399875164032,11
0.7233482003211975,3.4973301887512207,10.705373764038086,0.04467320814728737,-0.22456443309783936,0.35352420806884766,11
0.960673451423645,3.5284547805786133,10.731709480285645,0.15439221262931824,-0.210183784365654,0.2954690158367157,11
1.1737574338912964,3.5045127868652344,10.6431245803833,0.24706748127937317,-0.17183540761470795,0.21504391729831696,11
1.2814964056015015,3.4590229988098145,10.461165428161621,0.30139437317848206,-0.13188916444778442,0.13355359435081482,11
1.2120646238327026,3.3871967792510986,10.307637214660645,0.3498624861240387,-0.09673647582530975,0.03555215150117874,11
0.9726444482803345,3.3057940006256104,10.211869239807129,0.3716997504234314,-0.0919429287314415,-0.04327509179711342,11
0.6658873558044434,3.250727415084839,10.199897766113281,0.38554778695106506,-0.11804113537073135,-0.08481918275356293,11
0.3737947344779968,3.202843427658081,10.211869239807129,0.4004610478878021,-0.1547916680574417,-0.08268871158361435,11
0.26575639843940735,3.0998926162719727,10.235811233520508,0.40898290276527405,-0.2091185599565506,-0.04114462435245514,11
0.2298433631658554,3.0301616191864014,10.271723747253418,0.4020588994026184,-0.24906480312347412,0.007323476951569319,11
0.2876034677028656,3.085228204727173,10.43004035949707,0.3919391632080078,-0.2836848795413971,0.09094426780939102,11
0.23942017555236816,3.269881010055542,10.628759384155273,0.40631982684135437,-0.21071641147136688,0.15911918878555298,11
0.19632454216480255,3.5930981636047363,10.743680953979492,0.44040727615356445,-0.08288844674825668,0.20811989903450012,11
0.4288613796234131,3.7322611808776855,10.683825492858887,0.44307035207748413,-0.07383396476507187,0.22463101148605347,11
0.7903858423233032,3.698742389678955,10.525808334350586,0.3807542324066162,-0.23202106356620789,0.20439158380031586,11
1.202487826347351,3.643376350402832,10.442011833190918,0.20925171673297882,-0.5297536849975586,0.1149120107293129,11
1.7654244899749756,3.420715570449829,10.662278175354004,0.06597787141799927,-0.7513221502304077,0.026497671380639076,11
2.270900249481201,2.838625431060791,11.095928192138672,-0.13481855392456055,-0.9989888668060303,-0.11038476973772049,11
2.661454439163208,2.100912094116211,11.678017616271973,-0.24826587736606598,-1.0346741676330566,-0.19986434280872345,11
2.9583353996276855,1.3964180946350098,12.22419548034668,-0.29460349678993225,-0.9159006476402283,-0.26431095600128174,11
3.0469210147857666,0.7784148454666138,12.595296859741211,-0.2551898956298828,-0.6266899108886719,-0.3021267056465149,11
2.793135643005371,0.3115454912185669,12.641085624694824,-0.11085081100463867,-0.19473791122436523,-0.30745288729667664,11
2.366668462753296,0.043095629662275314,12.307991981506348,-0.11085081100463867,-0.19473791122436523,-0.30745288729667664,11
1.8587983846664429,-0.014365210197865963,11.65647029876709,0.467038094997406,0.815635621547699,-0.1508636325597763,11
1.3557167053222656,0.09816227108240128,10.686220169067383,0.4984624683856964,0.8422664403915405,-0.13381989300251007,11
1.149815320968628,0.2082955539226532,9.636960983276367,0.635344922542572,0.8598427772521973,-0.06937330216169357,11
1.104325532913208,0.3522469103336334,8.671499252319336,0.6886065602302551,0.7469280958175659,-0.03528584539890289,11
1.1641805171966553,0.5413888692855835,7.926603317260742,0.6987262964248657,0.5157725214958191,-0.01877473294734955,11
1.348534107208252,0.7472901940345764,7.354089736938477,0.6614431142807007,0.26597535610198975,-0.033155377954244614,11
1.655291199684143,0.9175778031349182,6.963535785675049,0.5554524660110474,0.02097177505493164,-0.0981345921754837,11
1.988384485244751,0.9989806413650513,6.676231384277344,0.5288216471672058,-0.009387366473674774,-0.11464570462703705,11
2.2613234519958496,1.0420763492584229,6.491878032684326,0.2678395211696625,-0.14041103422641754,-0.2770937383174896,11
2.3714568614959717,1.1593921184539795,6.438906192779541,0.1059241071343422,-0.08821461349725723,-0.36817115545272827,11
2.3259668350219727,1.3772644996643066,6.530185222625732,-0.026697402819991112,-0.007789516355842352,-0.4380105137825012,11
2.144007682800293,1.63613760471344,6.7025675773620605,-0.2051239311695099,0.14826712012290955,-0.5333488583564758,11
1.9282301664352417,1.8468273878097534,6.922834396362305,-0.2993970513343811,0.2670406103134155,-0.5945997834205627,11
1.6935983896255493,1.9114707708358765,7.0715742111206055,-0.44426873326301575,0.524294376373291,-0.7352105379104614,11
1.3988122940063477,1.8827403783798218,7.229591369628906,-0.45385584235191345,0.5386750102043152,-0.7517216205596924,11
0.9894038438796997,1.8947113752365112,7.366060733795166,-0.46504080295562744,0.5503925681114197,-0.7682327628135681,11
0.5318120718002319,1.9979612827301025,7.473799705505371,-0.4623776972293854,0.5210986733436584,-0.7692979574203491,11
0.13407529890537262,2.1583728790283203,7.663240909576416,-0.4495949149131775,0.42629292607307434,-0.7362757325172424,11
-0.13168109953403473,2.318784236907959,7.873930931091309,-0.42349669337272644,0.3043237626552582,-0.6798183917999268,11
-0.2899976670742035,2.448071241378784,8.09898567199707,-0.384083092212677,0.18874597549438477,-0.6057847142219543,11
-0.32112228870391846,2.495955228805542,8.298004150390625,-0.3318866491317749,0.08062482625246048,-0.5253596305847168,11
-0.22266076505184174,2.5441386699676514,8.470386505126953,-0.28554901480674744,-0.0008655018173158169,-0.4641087055206299,11
-0.05267243832349777,2.620753049850464,8.630797386169434,-0.213645800948143,-0.08874722570180893,-0.38155314326286316,11
0.1604115068912506,2.7428572177886963,8.75080680847168,-0.17050385475158691,-0.12123683094978333,-0.33621418476104736,11
0.3354875147342682,2.8505964279174805,8.78193187713623,-0.12682931125164032,-0.13721533119678497,-0.29413747787475586,11
0.47913962602615356,2.9391818046569824,8.755595207214355,-0.09327446669340134,-0.13188916444778442,-0.2616478502750397,11
0.5509656667709351,3.056497812271118,8.71728801727295,-0.08794829994440079,-0.12283468246459961,-0.24993029236793518,11
0.5701192617416382,3.2172086238861084,8.786720275878906,-0.08421998471021652,-0.12283468246459961,-0.23022349178791046,11
0.5605424642562866,3.3871967792510986,8.892065048217773,-0.0863504484295845,-0.13828055560588837,-0.20678836107254028,11
0.5677250623703003,3.5045127868652344,8.995016098022461,-0.08368737250566483,-0.14946550130844116,-0.1844184696674347,11
0.591667115688324,3.597886562347412,9.129091262817383,-0.075698122382164,-0.1649113893508911,-0.16737474501132965,11
0.6563105583190918,3.6867713928222656,9.263166427612305,-0.06824149191379547,-0.17396587133407593,-0.15725502371788025,11
0.7185598015785217,3.7370495796203613,9.433453559875488,-0.05545869469642639,-0.1654440015554428,-0.1519288569688797,11
0.7496843934059143,3.768174171447754,9.577106475830078,-0.02137123793363571,-0.1244325339794159,-0.15459194779396057,11
0.7855974435806274,3.7729625701904297,9.675268173217773,0.01804238371551037,-0.06584471464157104,-0.1615159511566162,11
0.7472901940345764,3.768174171447754,9.749488830566406,0.06597787141799927,0.0071237459778785706,-0.16790735721588135,11
0.6371569037437439,3.7945103645324707,9.790189743041992,0.11125027388334274,0.07370080798864365,-0.1721682846546173,11
0.4887164235115051,3.813663959503174,9.840767860412598,0.15492482483386993,0.11471228301525116,-0.16737474501132965,11
0.30196869373321533,3.85197114944458,9.88625717163086,0.19646891951560974,0.1424083411693573,-0.15618979930877686,11
0.11013327538967133,3.8016929626464844,9.9772367477417,0.2332194596529007,0.14613665640354156,-0.1311568170785904,11
-0.07900865375995636,3.7322611808776855,10.080187797546387,0.26890477538108826,0.13015815615653992,-0.09280842542648315,11
-0.24899697303771973,3.696348190307617,10.171167373657227,0.3163076341152191,0.055591847747564316,0.03022598661482334,11
-0.2899976670742035,3.6891655921936035,10.228628158569336,0.3163076341152191,0.055591847747564316,0.03022598661482334,11
-0.24660277366638184,3.698742389678955,10.350732803344727,0.3067205250263214,0.016178226098418236,0.06644391268491745,11
-0.11013327538967133,3.648164749145508,10.528203010559082,0.2832854092121124,-0.021104929968714714,0.09627043455839157,11
-0.016759412363171577,3.5619735717773438,10.772411346435547,0.27156785130500793,-0.016843996942043304,0.11704248189926147,11
-0.15562310814857483,3.5883097648620605,11.028889656066895,0.27955707907676697,0.05399399995803833,0.15485824644565582,11
-0.4480150043964386,3.8423943519592285,11.21084976196289,0.3200359344482422,0.16744130849838257,0.2198374718427658,11
-0.6563105583190918,4.223371982574463,11.227608680725098,0.3610474169254303,0.19140906631946564,0.3071865737438202,11
-0.6156091094017029,4.565742492675781,11.067197799682617,0.34613415598869324,0.027895789593458176,0.40572062134742737,11
-0.29478609561920166,4.834192276000977,10.851420402526855,0.27263307571411133,-0.16331353783607483,0.42702528834342957,11
0.23942017555236816,4.843769550323486,10.808323860168457,0.11338073760271072,-0.4653070867061615,0.3902747631072998,11
0.9199720025062561,4.352658748626709,10.896909713745117,-0.07889381796121597,-0.7273544073104858,0.28801238536834717,11
1.6026188135147095,3.4278981685638428,11.309011459350586,-0.39153972268104553,-0.7113759517669678,-0.09547150880098343,11
2.029085874557495,2.340332269668579,11.771391868591309,-0.39153972268104553,-0.7113759517669678,-0.09547150880098343,11
2.117671489715576,1.3413515090942383,12.065878868103027,-0.3952680230140686,-0.5356124639511108,-0.19134248793125153,11
1.7199347019195557,0.5246294736862183,12.176311492919922,-0.07037195563316345,0.5083158612251282,-0.331953227519989,11
0.9032126069068909,0.026336219161748886,11.910255432128906,0.011650986038148403,0.692601203918457,-0.3031919598579407,11
-0.09816227108240128,-0.17717093229293823,11.230003356933594,0.05319507420063019,0.777819812297821,-0.28401774168014526,11
-1.0085574388504028,-0.12449848651885986,10.233416557312012,0.2667742967605591,1.1539136171340942,-0.1311568170785904,11
-1.6457144021987915,0.10773907601833344,9.05247688293457,0.44147250056266785,1.3951889276504517,0.07070484012365341,11
-1.9692308902740479,0.4767454266548157,7.950545310974121,0.551191508769989,1.4298089742660522,0.3045234978199005,11
-2.036268472671509,0.943913996219635,6.968324184417725,0.5554524660110474,1.3131660223007202,0.43022099137306213,11
-1.8659809827804565,1.456572413444519,6.278494834899902,0.27050259709358215,0.40392303466796875,0.5708317756652832,11
-1.533186912536621,1.8587983846664429,5.84963321685791,0.2332194596529007,0.30751946568489075,0.5655055642127991,11
-1.0660183429718018,2.036268472671509,5.722740650177002,0.10911981016397476,0.014580377377569675,0.542603075504303,11
-0.5198410153388977,2.050633668899536,5.936123847961426,-0.05652392655611038,-0.34014222025871277,0.4898740351200104,11
0.06224924325942993,1.8587983846664429,6.367080211639404,-0.2557224929332733,-0.656516432762146,0.3998618423938751,11
0.512658417224884,1.5882534980773926,6.93959379196167,-0.43414902687072754,-0.802453339099884,0.30345824360847473,11
0.8023568391799927,1.3150153160095215,7.559991359710693,-0.5976623296737671,-0.7795508503913879,0.20598943531513214,11
0.982221245765686,1.0947487354278564,8.151957511901855,-0.6807504892349243,-0.6272225379943848,0.14793424308300018,11
1.0516531467437744,0.9798270463943481,8.661922454833984,-0.7143053412437439,-0.391806036233902,0.10212921351194382,11
0.9965864419937134,0.9199720025062561,9.05487060546875,-0.7057834267616272,-0.12922608852386475,0.07975932210683823,11
0.8286930918693542,0.9582792520523071,9.268254280090332,-0.5433354377746582,0.3884771764278412,0.09627043455839157,11
0.5461772680282593,1.061229944229126,9.332897186279297,-0.5268242955207825,0.4103144407272339,0.10106398165225983,11
0.21547815203666687,1.2503718137741089,9.239224433898926,-0.507117509841919,0.4294886291027069,0.1042596846818924,11
-0.1412578970193863,1.4781203269958496,8.944737434387207,-0.426692396402359,0.4832828938961029,0.13035789132118225,11
-0.4288613796234131,1.7151461839675903,8.60925006866455,-0.426692396402359,0.4832828938961029,0.13035789132118225,11
-0.6658873558044434,1.9692308902740479,8.341099739074707,-0.31324508786201477,0.38102054595947266,0.20811989903450012,11
-0.7760206460952759,2.234987258911133,8.190264701843262,-0.28341856598854065,0.21377895772457123,0.2741643488407135,11
-0.81672203540802,2.495955228805542,8.108562469482422,-0.26104867458343506,0.07529865950345993,0.32476291060447693,11
-0.7544727921485901,2.680608034133911,8.084620475769043,-0.24187447130680084,-0.03761604055762291,0.3572525382041931,11
-0.5653308629989624,2.7835588455200195,8.139687538146973,-0.22909167408943176,-0.10792142152786255,0.3684374690055847,11
-0.3139396905899048,2.8745384216308594,8.242937088012695,-0.22110243141651154,-0.15798737108707428,0.3599156141281128,11
-0.090979665517807,2.972700595855713,8.357858657836914,-0.215776264667511,-0.1649113893508911,0.339676171541214,11
0.06703764945268631,3.111863613128662,8.496722221374512,-0.22642859816551208,-0.14200887084007263,0.3061213493347168,11
0.14844051003456116,3.2626984119415283,8.71489429473877,-0.23281998932361603,-0.12975870072841644,0.2848166823387146,11
0.1867477297782898,3.3919851779937744,9.011775016784668,-0.23281998932361603,-0.12975870072841644,0.2848166823387146,11
0.2106897532939911,3.4805707931518555,9.330503463745117,-0.25199419260025024,-0.14360672235488892,0.22250054776668549,11
0.2777273952960968,3.5428199768066406,9.663297653198242,-0.23761354386806488,-0.1457371860742569,0.20811989903450012,11
0.400130957365036,3.5619735717773438,10.039485931396484,-0.20778702199459076,-0.1457371860742569,0.19800019264221191,11
0.4982932209968567,3.5859155654907227,10.406098365783691,-0.15559059381484985,-0.1356174796819687,0.18628261983394623,11
0.5868787169456482,3.6146459579467773,10.691008567810059,-0.09167661517858505,-0.10525833815336227,0.17030413448810577,11
0.6754641532897949,3.621828556060791,10.884939193725586,0.008455286733806133,-0.05465976893901825,0.14260807633399963,11
0.6778583526611328,3.6314053535461426,10.957063674926758,0.10858719050884247,-0.01258306484669447,0.10212921351194382,11
0.6084265112876892,3.6337995529174805,10.971428871154785,0.221501886844635,-0.004061201121658087,0.05579157918691635,11
0.5030816197395325,3.6314053535461426,10.91606330871582,0.31044885516166687,-0.0386812724173069,0.013182258233428001,11
0.36421793699264526,3.552396774291992,10.858602523803711,0.37702590227127075,-0.10579095780849457,-0.02303566411137581,11
0.23702596127986908,3.4805707931518555,10.82747745513916,0.42762449383735657,-0.1782267987728119,-0.03209014609456062,11
0.17238251864910126,3.3943793773651123,10.875362396240234,0.45105960965156555,-0.2192382663488388,-0.01983996480703354,11
0.17238251864910126,3.3177649974823,10.93761157989502,0.46277716755867004,-0.24640171229839325,0.010519175790250301,11
0.19871874153614044,3.2842462062835693,10.985794067382812,0.4686359465122223,-0.23841246962547302,0.044606633484363556,11
0.22505496442317963,3.3464953899383545,11.038467407226562,0.47449472546577454,-0.1569221466779709,0.07922670245170593,11
0.031124621629714966,3.576338768005371,11.002553939819336,0.4776904284954071,-0.13029131293296814,0.08508548885583878,11
-0.1843535304069519,3.942950963973999,10.860997200012207,0.4776904284954071,-0.13029131293296814,0.08508548885583878,11
-0.1867477297782898,4.151246547698975,10.817900657653809,0.47342950105667114,0.10512518137693405,0.12343387305736542,11
-0.05985504388809204,4.240131378173828,10.674248695373535,0.3919391632080078,-0.12496514618396759,0.12290126085281372,11
0.26336219906806946,4.304774761199951,10.676643371582031,0.25771981477737427,-0.42802393436431885,0.09467258304357529,11
