AccX,AccY,AccZ,GyroX,GyroY,GyroZ,Label
8.927978515625,-9.38317584991455,9.14585018157959,0.05266245827078819,-0.641070544719696,0.2501966059207916,11
9.186552047729492,-8.868123054504395,9.026140213012695,1.3575729131698608,-0.8365408182144165,-0.09706936031579971,11
9.059659004211426,-8.036736488342285,8.448838233947754,1.3575729131698608,-0.8365408182144165,-0.09706936031579971,11
8.66431713104248,-7.148188591003418,7.435492515563965,1.3575729131698608,-0.8365408182144165,-0.09706936031579971,11
8.45123291015625,-6.618770599365234,6.264129638671875,1.4518460035324097,-0.8791501522064209,-0.14926578104496002,11
8.554183006286621,-6.566098213195801,4.9922099113464355,1.610632300376892,-1.0202934741973877,-0.3015941083431244,11
8.657134056091309,-6.819883346557617,3.789721965789795,1.6564373970031738,-1.2205573320388794,-0.5184355974197388,11
8.606855392456055,-7.234379768371582,2.77158784866333,1.6079692840576172,-1.330276370048523,-0.6590463519096375,11
8.422502517700195,-7.672817707061768,2.009932279586792,1.6079692840576172,-1.330276370048523,-0.6590463519096375,11
8.190264701843262,-8.036736488342285,1.6074072122573853,1.2451908588409424,-1.4475184679031372,-0.9732900857925415,11
7.955333709716797,-8.278850555419922,1.5451579093933105,1.0422639846801758,-1.4453880786895752,-1.0824764966964722,11
7.682394504547119,-8.321946144104004,1.8061258792877197,0.8846094608306885,-1.4294096231460571,-1.1490535736083984,11
7.416338920593262,-8.207024574279785,2.2469582557678223,0.728020191192627,-1.3873329162597656,-1.214565396308899,11
7.229591369628906,-8.036736488342285,2.769193649291992,0.6236273646354675,-1.3196239471435547,-1.275283694267273,11
7.148188591003418,-7.871536731719971,3.291428804397583,0.5645069479942322,-1.2423945665359497,-1.3407955169677734,11
7.083545207977295,-7.79252815246582,3.7131075859069824,0.5586481690406799,-1.138534426689148,-1.4441231489181519,11
7.006631374359131,-7.823652744293213,4.0004119873046875,0.5852789878845215,-1.0655659437179565,-1.520287275314331,11
6.8127007484436035,-7.89547872543335,4.117727756500244,0.6459972262382507,-0.940401017665863,-1.6230822801589966,11
6.618770599365234,-8.012794494628906,4.048295974731445,0.6965958476066589,-0.848258376121521,-1.6811374425888062,11
6.3622918128967285,-8.228571891784668,3.8926727771759033,0.7599771618843079,-0.7353436946868896,-1.7333338260650635,11
6.05583381652832,-8.353070259094238,3.6700119972229004,0.8238911628723145,-0.6091135740280151,-1.7711496353149414,11
5.658097267150879,-8.336311340332031,3.4829649925231934,0.8238911628723145,-0.6091135740280151,-1.7711496353149414,11
5.2124762535095215,-8.144774436950684,3.2746694087982178,0.8238911628723145,-0.6091135740280151,-1.7711496353149414,11
4.8365864753723145,-7.955333709716797,3.042132616043091,0.9463929533958435,-0.39553433656692505,-1.7040399312973022,11
4.599261283874512,-7.859565734863281,2.7356746196746826,0.9671649932861328,-0.3145766258239746,-1.621484398841858,11
4.443638324737549,-7.799710750579834,2.450465440750122,0.9591757655143738,-0.273032546043396,-1.5517116785049438,11
4.32871675491333,-7.7183074951171875,2.165555477142334,0.9384037256240845,-0.2506626546382904,-1.4872649908065796,11
4.220977783203125,-7.639298915863037,2.0410568714141846,0.9170990586280823,-0.25865188241004944,-1.4414600133895874,11
4.038719177246094,-7.550414562225342,2.009932279586792,0.8968596458435059,-0.2948698103427887,-1.375948190689087,11
3.880701780319214,-7.500135898590088,1.9258359670639038,0.8696961998939514,-0.3348160684108734,-1.2880665063858032,11
3.8232407569885254,-7.5575971603393555,1.7678186893463135,0.8105757832527161,-0.3475988507270813,-1.1431947946548462,11
3.8854901790618896,-7.610568523406982,1.6026188135147095,0.7807492017745972,-0.35345762968063354,-1.0878026485443115,11
3.9166147708892822,-7.584232330322266,1.5260043144226074,0.7226940393447876,-0.37263181805610657,-1.0020513534545898,11
3.8854901790618896,-7.500135898590088,1.559523105621338,0.6603779196739197,-0.41843685507774353,-0.900854229927063,11
3.8400001525878906,-7.459434509277344,1.6313492059707642,0.6225621104240417,-0.4780898988246918,-0.8113746643066406,11
3.787327766418457,-7.3780317306518555,1.7319056987762451,0.6039205193519592,-0.525492787361145,-0.738406240940094,11
3.770568370819092,-7.337330341339111,1.777395486831665,0.5895398855209351,-0.5590475797653198,-0.6643725037574768,11
3.7945103645324707,-7.299023151397705,1.736694097518921,0.5895398855209351,-0.5590475797653198,-0.6643725037574768,11
3.8902785778045654,-7.3109941482543945,1.657685399055481,0.5495936870574951,-0.5835479497909546,-0.46783703565597534,11
3.942950963973999,-7.380425930023193,1.5690999031066895,0.5224302411079407,-0.5702325701713562,-0.3980642557144165,11
3.9716813564300537,-7.459434509277344,1.4685434103012085,0.48514705896377563,-0.5430691242218018,-0.3138442933559418,11
4.069843769073486,-7.591414928436279,1.3389573097229004,0.43934205174446106,-0.5270906090736389,-0.24194104969501495,11
4.228160381317139,-7.89547872543335,1.1402385234832764,0.3796890079975128,-0.5222970843315125,-0.1737661361694336,11
4.443638324737549,-8.259696960449219,0.9367313981056213,0.3796890079975128,-0.5222970843315125,-0.1737661361694336,11
4.611232280731201,-8.649951934814453,0.7209540009498596,0.22736068069934845,-0.5238949060440063,-0.06830807030200958,11
4.699818134307861,-8.983044624328613,0.5150526165962219,0.10911981016397476,-0.5228297114372253,-0.02090519852936268,11
4.668693542480469,-9.133879661560059,0.41210195422172546,-0.026164786890149117,-0.5015250444412231,0.027562905102968216,11
4.508281707763672,-9.119514465332031,0.4073135554790497,-0.20139561593532562,-0.4408067464828491,0.08934641629457474,11
4.259284973144531,-8.935160636901855,0.5270236730575562,-0.33721283078193665,-0.36197948455810547,0.15379302203655243,11
4.033930778503418,-8.681076049804688,0.7472901940345764,-0.4288228750228882,-0.2831522524356842,0.2113156020641327,11
4.1320929527282715,-8.738836288452148,0.9151836037635803,-0.5214981436729431,-0.20752070844173431,0.2725664973258972,11
4.49870491027832,-9.368810653686523,0.9295487999916077,-0.6083146333694458,-0.14893288910388947,0.29866471886634827,11
4.76924991607666,-10.152013778686523,0.8191162347793579,-0.7100443840026855,-0.05572500079870224,0.3061213493347168,11
4.79588508605957,-10.777199745178223,0.7281365990638733,-0.8149698376655579,0.07316819578409195,0.32476291060447693,11
4.728548526763916,-11.206061363220215,0.5557540655136108,-0.967897355556488,0.24680118262767792,0.36311131715774536,11
4.484339714050293,-11.435904502868652,0.44083237648010254,-1.111703872680664,0.39327073097229004,0.4121120274066925,11
3.91900897026062,-11.256339073181152,0.39055415987968445,-1.2650973796844482,0.5445337891578674,0.4978632926940918,11
3.176506996154785,-10.652701377868652,0.5006874203681946,-1.4120994806289673,0.7085797190666199,0.6251586079597473,11
2.4863784313201904,-9.835979461669922,0.7018003463745117,-1.5409927368164062,0.860908031463623,0.788139283657074,11
1.9812018871307373,-9.131484985351562,0.9678560495376587,-1.6389942169189453,0.9824111461639404,0.9670984148979187,11
1.7271173000335693,-8.685864448547363,1.27191960811615,-1.6933209896087646,1.063901424407959,1.1130353212356567,11
1.7606360912322998,-8.630797386169434,1.559523105621338,-1.7311367988586426,1.1720225811004639,1.3170274496078491,11
1.9473837614059448,-8.841787338256836,1.9066823720932007,-1.7140930891036987,1.2242190837860107,1.4432575702667236,11
2.2685060501098633,-9.172186851501465,2.278082847595215,-1.6208852529525757,1.2678935527801514,1.6051729917526245,11
2.5848400592803955,-9.40711784362793,2.6566660404205322,-1.481339693069458,1.2407301664352417,1.7276748418807983,11
2.881721019744873,-9.541193008422852,2.903268814086914,-1.3391311168670654,1.1576420068740845,1.82248055934906,11
3.248333215713501,-9.703998565673828,3.018190622329712,-1.1383346319198608,0.9951939582824707,1.937525749206543,11
3.6385879516601562,-9.864709854125977,2.948758602142334,-0.883743941783905,0.709112286567688,2.0579636096954346,11
4.141669750213623,-10.113706588745117,2.7572224140167236,-0.6876745223999023,0.440140962600708,2.1330626010894775,11
4.697423934936523,-10.3363676071167,2.4887726306915283,-0.5167046189308167,0.1647782325744629,2.1756718158721924,11
5.272331237792969,-10.485107421875,2.182314872741699,-0.4069855809211731,-0.037083424627780914,2.1740739345550537,11
5.7538652420043945,-10.564115524291992,1.856404185295105,-0.4069855809211731,-0.037083424627780914,2.1740739345550537,11
6.0510454177856445,-10.475530624389648,1.4996681213378906,-0.24293971061706543,-0.3348160684108734,2.0542352199554443,11
6.0965352058410645,-10.298060417175293,1.1139023303985596,-0.2445375621318817,-0.31937018036842346,1.95357084274292,11
5.960065841674805,-10.027515411376953,0.7640495896339417,-0.2993970513343811,-0.20379239320755005,1.8863945007324219,11
5.705981254577637,-9.771036148071289,0.5485714673995972,-0.37130028009414673,-0.06744256615638733,1.8560353517532349,11
5.452195644378662,-9.526827812194824,0.431255578994751,-0.5039218068122864,0.18235458433628082,1.846448302268982,11
5.305850028991699,-9.347262382507324,0.45759180188179016,-0.6109777092933655,0.4214994013309479,1.8634920120239258,11
5.257966041564941,-9.255983352661133,0.5629366636276245,-0.690337598323822,0.5972628593444824,1.885329246520996,11
5.250783443450928,-9.169792175292969,0.6850409507751465,-0.7734257578849792,0.8097768425941467,1.9167536497116089,11
5.296273231506348,-9.071630477905273,0.7879916429519653,-0.8294170498847961,0.9530506730079651,1.9423192739486694,11
5.358821868896484,-8.911218643188477,0.8696937561035156,-0.8294170498847961,0.9530506730079651,1.9423192739486694,11
5.437830448150635,-8.760383605957031,0.9654618501663208,-0.9354077577590942,1.208773136138916,1.9935170412063599,11
5.559935092926025,-8.626008987426758,1.0732009410858154,-0.96097332239151,1.2332735061645508,2.004169464111328,11
5.7538652420043945,-8.523058891296387,1.1881226301193237,-0.967897355556488,1.2119688987731934,1.9988431930541992,11
5.972036838531494,-8.45123291015625,1.2862848043441772,-0.9519188404083252,1.145391821861267,1.9812668561935425,11
6.199486255645752,-8.422502517700195,1.3150153160095215,-0.9348751306533813,1.0516513586044312,1.9572991132736206,11
6.367080211639404,-8.391377449035645,1.3174095153808594,-0.9125052094459534,0.9589094519615173,1.9279385805130005,11
6.5948286056518555,-8.391377449035645,1.367687702178955,-0.8848091959953308,0.8593101501464844,1.892785906791687,11
6.879738807678223,-8.398560523986816,1.3413515090942383,-0.8624392747879028,0.7937983274459839,1.8517744541168213,11
7.155371189117432,-8.39377212524414,1.27191960811615,-0.8352758288383484,0.6957969069480896,1.7670884132385254,11
7.390002727508545,-8.398560523986816,1.0875661373138428,-0.852319598197937,0.6105782389640808,1.6744132041931152,11
7.555202960968018,-8.381800651550293,0.900818407535553,-0.9034507870674133,0.5365445613861084,1.5673571825027466,11
7.6536641120910645,-8.367435455322266,0.7999626398086548,-0.9662995338439941,0.48701122403144836,1.478410243988037,11
7.636904716491699,-8.278850555419922,0.8792705535888672,-1.05098557472229,0.43694525957107544,1.3740174770355225,11
7.550414562225342,-8.233360290527344,1.1378443241119385,-1.1234214305877686,0.3991295099258423,1.2824074029922485,11
7.45225191116333,-8.09659194946289,1.5882534980773926,-1.1473891735076904,0.3682377338409424,1.2094389200210571,11
7.4187331199646,-7.957727909088135,2.0817582607269287,-1.1260844469070435,0.33042195439338684,1.1439270973205566,11
7.413944721221924,-7.842806339263916,2.551321268081665,-1.0472571849822998,0.2814212441444397,1.0736217498779297,11
7.440280914306641,-7.735067367553711,2.9200282096862793,-0.9322120547294617,0.22389866411685944,0.9963923692703247,11
7.488164901733398,-7.644087314605713,3.1262288093566895,-0.8229590654373169,0.1748979538679123,0.926086962223053,11
7.545626163482666,-7.639298915863037,3.183689594268799,-0.8229590654373169,0.1748979538679123,0.926086962223053,11
7.600991725921631,-7.70394229888916,3.1070752143859863,-0.4900737702846527,0.09394023567438126,0.6922683119773865,11
7.691971302032471,-7.885901927947998,2.9990367889404297,-0.40112680196762085,0.09127715229988098,0.6129084229469299,11
7.7877397537231445,-8.154352188110352,2.841019630432129,-0.30578845739364624,0.09340762346982956,0.5133091807365417,11
7.8092875480651855,-8.470386505126953,2.6925790309906006,-0.23388522863388062,0.10512518137693405,0.4216991364955902,11
7.826046943664551,-8.657134056091309,2.61357045173645,-0.16730816662311554,0.10192948579788208,0.3157084286212921,11
7.950545310974121,-8.798690795898438,2.6327240467071533,-0.06930672377347946,-0.13881318271160126,0.03129122033715248,11
8.274062156677246,-9.148244857788086,2.639906644821167,-0.06930672377347946,-0.13881318271160126,0.03129122033715248,11
8.829815864562988,-9.888651847839355,2.6039936542510986,-0.05758916214108467,-0.2543909549713135,-0.07363422960042953,11
9.40951156616211,-10.839448928833008,2.615964651107788,-0.04853468015789986,-0.4221651554107666,-0.2248973250389099,11
9.78061294555664,-11.56549072265625,2.7356746196746826,-0.0330887995660305,-0.6272225379943848,-0.4412062168121338,11
9.833584785461426,-11.922226905822754,2.9128456115722656,0.0025965054519474506,-0.8317472338676453,-0.7059165835380554,11
9.699210166931152,-11.99405288696289,3.2172086238861084,0.054792921990156174,-0.9702275395393372,-0.9264198541641235,11
9.229647636413574,-11.728296279907227,3.559579372406006,0.14320726692676544,-1.070892095565796,-1.1357381343841553,11
8.506299018859863,-11.251550674438477,3.9166147708892822,0.2444044053554535,-1.1348060369491577,-1.2784793376922607,11
7.713519096374512,-10.70058536529541,4.2329487800598145,0.4153743088245392,-1.1838067770004272,-1.421753168106079,11
6.932411193847656,-10.082581520080566,4.489128112792969,0.8712940216064453,-1.264764428138733,-1.6257452964782715,11
6.194697856903076,-9.428665161132812,4.608838081359863,0.8712940216064453,-1.264764428138733,-1.6257452964782715,11
5.643732070922852,-8.920795440673828,4.522646903991699,1.181809425354004,-1.325482726097107,-1.7152248620986938,11
5.301061630249023,-8.705317497253418,4.244919776916504,1.380475401878357,-1.3734848499298096,-1.765823483467102,11
5.186140060424805,-8.877699851989746,3.7729625701904297,1.5999799966812134,-1.445920705795288,-1.836661458015442,11
5.205293655395508,-9.323320388793945,3.1310172080993652,1.7586997747421265,-1.5263457298278809,-1.9090973138809204,11
5.2555718421936035,-9.794978141784668,2.5079262256622314,1.8524402379989624,-1.6030426025390625,-1.981533169746399,11
5.238812446594238,-10.219051361083984,1.9378069639205933,1.8934516906738281,-1.6674891710281372,-2.0502407550811768,11
5.152621269226074,-10.597634315490723,1.4493898153305054,1.8742774724960327,-1.74791419506073,-2.0992414951324463,11
5.0376996994018555,-10.88015079498291,1.0516531467437744,1.8252767324447632,-1.8075672388076782,-2.1173503398895264,11
4.922778129577637,-11.045649528503418,0.7975684404373169,1.709699034690857,-1.9023730754852295,-2.123209238052368,11
4.843769550323486,-11.107898712158203,0.651522159576416,1.5813384056091309,-1.984395980834961,-2.1077632904052734,11
4.815038681030273,-11.100716590881348,0.5868787169456482,1.4678245782852173,-2.044049024581909,-2.085926055908203,11
4.879682540893555,-11.098321914672852,0.6060323119163513,1.2952567338943481,-2.1026368141174316,-2.0550341606140137,11
5.11191987991333,-11.100716590881348,0.7688380479812622,1.1541134119033813,-2.1356589794158936,-2.0422513484954834,11
5.413888454437256,-11.095928192138672,0.9534908533096313,1.0225571393966675,-2.1345937252044678,-2.0560994148254395,11
5.650914669036865,-11.033679008483887,1.1522095203399658,0.92668616771698,-2.0983757972717285,-2.0848608016967773,11
5.811326026916504,-10.906486511230469,1.3365631103515625,0.8249564170837402,-2.0232770442962646,-2.1402528285980225,11
5.8978166580200195,-10.774805068969727,1.4637550115585327,0.7301506400108337,-1.9039708375930786,-2.2190802097320557,11
5.912181854248047,-10.70058536529541,1.533186912536621,0.6241599917411804,-1.7170225381851196,-2.3261361122131348,11
5.75865364074707,-10.583269119262695,1.5954362154006958,0.54320228099823,-1.5348676443099976,-2.417746067047119,11
5.521627902984619,-10.437223434448242,1.6193782091140747,0.46437501907348633,-1.3435916900634766,-2.4949755668640137,11
5.193322658538818,-10.242993354797363,1.6672621965408325,0.4041893482208252,-1.1507844924926758,-2.555161237716675,11
4.870105743408203,-10.092158317565918,1.758241891860962,0.3690366744995117,-1.0085759162902832,-2.5849876403808594,11
4.599261283874512,-9.970054626464844,1.820491075515747,0.33601444959640503,-0.8381386399269104,-2.611085891723633,11
4.345476150512695,-9.905410766601562,1.7965490818023682,0.3184380829334259,-0.6703644394874573,-2.623868703842163,11
4.084208965301514,-9.835979461669922,1.734299898147583,0.30405744910240173,-0.5180361270904541,-2.620140314102173,11
3.80648136138916,-9.708786964416504,1.676838994026184,0.2950029671192169,-0.38328415155410767,-2.5988357067108154,11
3.5428199768066406,-9.522039413452148,1.63613760471344,0.2955355942249298,-0.26610851287841797,-2.5620851516723633,11
3.291428804397583,-9.313743591308594,1.5858592987060547,0.3045900762081146,-0.15319383144378662,-2.5013668537139893,11
3.061286211013794,-9.181763648986816,1.5260043144226074,0.3173728585243225,-0.07756227999925613,-2.427865743637085,11
2.812289237976074,-9.08838939666748,1.4541782140731812,0.329090416431427,-0.025365861132740974,-2.352766752243042,11
2.5393502712249756,-9.040505409240723,1.391629695892334,0.3525255620479584,0.02203700877726078,-2.226004123687744,11
2.2637176513671875,-8.937555313110352,1.3341689109802246,0.3850151598453522,0.057722315192222595,-2.043849229812622,11
1.9907786846160889,-8.70022964477539,1.3174095153808594,0.42016786336898804,0.06624417752027512,-1.8611618280410767,11
1.8133084774017334,-8.436867713928223,1.2647370100021362,0.4462660551071167,0.06038539856672287,-1.6992464065551758,11
1.755847692489624,-8.276455879211426,1.1857284307479858,0.4872775375843048,0.03695027157664299,-1.4478514194488525,11
1.7750012874603271,-8.154352188110352,1.1162965297698975,0.5187019109725952,0.01298252772539854,-1.2417287826538086,11
1.8971055746078491,-8.06546688079834,1.0324994325637817,0.5453327298164368,-0.006191667169332504,-1.038801908493042,11
2.055422067642212,-8.039131164550781,0.9247604012489319,0.559180736541748,-0.02376801148056984,-0.8518535494804382,11
2.24935245513916,-8.051101684570312,0.8047510385513306,0.5655721426010132,-0.03974650800228119,-0.67768794298172,11
2.448071241378784,-8.103774070739746,0.6826467514038086,0.5730288028717041,-0.039213892072439194,-0.5147072672843933,11
2.615964651107788,-8.187870979309082,0.5389946699142456,0.5613112449645996,-0.037083424627780914,-0.3639102280139923,11
2.7859530448913574,-8.3027925491333,0.3761889338493347,0.5437349081039429,-0.036018192768096924,-0.25259336829185486,11
2.9200282096862793,-8.48475170135498,0.21787235140800476,0.512843132019043,-0.0386812724173069,-0.11038476973772049,11
3.0708630084991455,-8.7268648147583,0.05267243832349777,0.4574510157108307,-0.055192384868860245,0.06378082931041718,11
3.1741127967834473,-9.011775016784668,-0.09816227108240128,0.39779797196388245,-0.0701056495308876,0.21823962032794952,11
3.22678542137146,-9.239224433898926,-0.24181437492370605,0.3152424097061157,-0.07596442848443985,0.38814428448677063,11
3.229179620742798,-9.246406555175781,-0.3354875147342682,0.2438717782497406,-0.07223611325025558,0.5292876362800598,11
3.3010056018829346,-9.148244857788086,-0.39055415987968445,0.12030475586652756,-0.06904041767120361,0.7380733489990234,11
3.621828556060791,-9.263166427612305,-0.4695627987384796,-0.002197043038904667,-0.09833431988954544,0.8888037800788879,11
4.1105451583862305,-9.670479774475098,-0.6108207106590271,-0.11617697775363922,-0.13029131293296814,0.9766855239868164,11
4.46518611907959,-10.211869239807129,-0.7401075959205627,-0.30365797877311707,-0.1020626425743103,1.0922633409500122,11
4.764461517333984,-10.655095100402832,-0.7425017952919006,-0.4698343276977539,-0.02909417636692524,1.1785471439361572,11
4.980238914489746,-10.995370864868164,-0.6587047576904297,-0.6328150033950806,0.06411371380090714,1.2632331848144531,11
5.004180908203125,-11.17733097076416,-0.4958990216255188,-0.7499906420707703,0.15625636279582977,1.3346037864685059,11
4.687847137451172,-10.988188743591309,-0.21787235140800476,-0.8816134929656982,0.28728002309799194,1.44805109500885,11
4.189553737640381,-10.331579208374023,0.20350714027881622,-0.9886693954467773,0.43481481075286865,1.631271243095398,11
3.619434356689453,-9.35205078125,0.6754641532897949,-1.0318113565444946,0.5232291221618652,1.8075672388076782,11
3.1525650024414062,-8.391377449035645,1.1139023303985596,-1.029680848121643,0.5732951164245605,2.0020389556884766,11
3.0038254261016846,-7.711124897003174,1.4805145263671875,-1.0009195804595947,0.5887410044670105,2.1517040729522705,11
3.2100260257720947,-7.411550521850586,1.7917606830596924,-0.9098421335220337,0.5898061990737915,2.3423807621002197,11
3.6867713928222656,-7.54083776473999,2.0602104663848877,-0.797926127910614,0.5498600006103516,2.4712741374969482,11
4.307168960571289,-8.017582893371582,2.1966800689697266,-0.6578479409217834,0.48594599962234497,2.5623514652252197,11
5.049670696258545,-8.623615264892578,2.292448043823242,-0.522030770778656,0.416705846786499,2.6049606800079346,11
5.7323174476623535,-9.255983352661133,2.3738510608673096,-0.32443001866340637,0.29686713218688965,2.6374504566192627,11
6.33834981918335,-9.835979461669922,2.383427858352661,-0.06877410411834717,0.12429937720298767,2.6422438621520996,11
6.975506782531738,-10.31242561340332,2.251746654510498,0.10645672678947449,0.004460663069039583,2.6193413734436035,11
7.516895294189453,-10.602422714233398,1.9473837614059448,0.2971334457397461,-0.12922608852386475,2.5506339073181152,11
7.931391716003418,-10.686220169067383,1.4876971244812012,0.4547879099845886,-0.24959741532802582,2.4084253311157227,11
8.187870979309082,-10.60960578918457,0.9319429993629456,0.4979298710823059,-0.2751629948616028,2.2449119091033936,11
8.27166748046875,-10.28130054473877,0.34985271096229553,0.4760925769805908,-0.24267339706420898,2.089387893676758,11
8.115745544433594,-9.759065628051758,-0.1364694982767105,0.37702590227127075,-0.1340196281671524,1.8800030946731567,11
7.7877397537231445,-9.198522567749023,-0.4982932209968567,0.18528397381305695,0.09660331904888153,1.6440540552139282,11
7.397185325622559,-8.81784439086914,-0.7041945457458496,-0.3292235732078552,0.8124399185180664,1.2669615745544434,11
7.097910404205322,-8.640374183654785,-0.7520785927772522,-0.37662646174430847,0.876353919506073,1.2413959503173828,11
6.819883346557617,-8.496722221374512,-0.6587047576904297,-0.461312472820282,0.9967917799949646,1.1897320747375488,11
6.570886611938477,-8.381800651550293,-0.45998600125312805,-0.9545819163322449,1.6950520277023315,0.8951951861381531,11
6.357503414154053,-8.288427352905273,-0.2298433631658554,-0.9545819163322449,1.6950520277023315,0.8951951861381531,11
6.175543785095215,-8.226178169250488,0.06464344263076782,-0.9545819163322449,1.6950520277023315,0.8951951861381531,11
5.979219436645508,-8.163928985595703,0.36421793699264526,-1.0664314031600952,1.851641297340393,0.8051829934120178,11
5.7538652420043945,-8.015189170837402,0.673069953918457,-1.158574104309082,1.9629580974578857,0.7066489458084106,11
5.45458984375,-7.861959934234619,0.943913996219635,-1.1958571672439575,1.999176025390625,0.6592460870742798,11
5.198111057281494,-7.7446441650390625,1.204882025718689,-1.204911708831787,2.008230447769165,0.6411371231079102,11
5.02094030380249,-7.70394229888916,1.4446014165878296,-1.1958571672439575,1.9847954511642456,0.6086475253105164,11
4.92996072769165,-7.75900936126709,1.614589810371399,-1.1633676290512085,1.9389903545379639,0.6102453470230103,11
4.901230335235596,-7.859565734863281,1.7845780849456787,-1.144726037979126,1.9075660705566406,0.6134410500526428,11
4.877288341522217,-7.931391716003418,1.8444331884384155,-1.1324758529663086,1.8926527500152588,0.6182346343994141,11
4.882076740264893,-7.948151111602783,1.8683751821517944,-0.9481905698776245,1.585332989692688,0.6997249722480774,11
4.92996072769165,-7.996035099029541,1.8683751821517944,-0.883743941783905,1.4580377340316772,0.7391385436058044,11
5.025728702545166,-8.019977569580078,1.7917606830596924,-0.8075132369995117,1.2732198238372803,0.7817478775978088,11
5.159803867340088,-7.996035099029541,1.700780987739563,-0.6738264560699463,0.8523861765861511,0.8547163605690002,11
5.317821025848389,-7.981669902801514,1.5858592987060547,-0.6738264560699463,0.8523861765861511,0.8547163605690002,11
5.464166641235352,-7.993640899658203,1.4709376096725464,-0.6402716040611267,0.7128406167030334,0.8728253245353699,11
5.55514669418335,-7.950545310974121,1.4062942266464233,-0.5774228572845459,0.4108470678329468,0.9202281832695007,11
5.629366874694824,-7.885901927947998,1.3964180946350098,-0.5545203685760498,0.33947643637657166,0.9394024014472961,11
5.672462463378906,-7.821258544921875,1.4541782140731812,-0.5545203685760498,0.33947643637657166,0.9394024014472961,11
5.744288444519043,-7.701548099517822,1.5714941024780273,-0.5545203685760498,0.33947643637657166,0.9394024014472961,11
5.811326026916504,-7.584232330322266,1.6816273927688599,-0.457051545381546,0.2175072729587555,0.986805260181427,11
5.972036838531494,-7.545626163482666,1.7869722843170166,-0.4176379144191742,0.18981121480464935,0.9942618608474731,11
6.197092056274414,-7.567173957824707,1.8085200786590576,-0.3622457981109619,0.17010439932346344,0.9884030818939209,11
6.4846954345703125,-7.706336498260498,1.8324620723724365,-0.3073863089084625,0.15998467803001404,0.9655005931854248,11
6.7696051597595215,-7.92899751663208,1.8037316799163818,-0.2562551200389862,0.14986497163772583,0.9319457411766052,11
7.021295547485352,-8.161534309387207,1.7630302906036377,-0.2040587067604065,0.14081048965454102,0.8973256945610046,11
7.239168167114258,-8.398560523986816,1.7510592937469482,-0.1603841483592987,0.13654956221580505,0.8680317401885986,11
7.394791126251221,-8.616432189941406,1.7390882968902588,-0.1071224957704544,0.12536461651325226,0.8339443206787109,11
7.545626163482666,-8.724471092224121,1.7630302906036377,-0.041078049689531326,0.10299471765756607,0.8083786964416504,11
7.83801794052124,-8.846575736999512,1.7223289012908936,0.019107617437839508,0.03162410482764244,0.7742912769317627,11
8.482357025146484,-9.23682975769043,1.6002246141433716,0.07236927002668381,-0.09034507721662521,0.7029206156730652,11
9.196128845214844,-9.938929557800293,1.367687702178955,0.09740224480628967,-0.23361891508102417,0.5830819010734558,11
9.759065628051758,-10.681431770324707,1.1522095203399658,0.09527178108692169,-0.36251211166381836,0.430753618478775,11
10.13286018371582,-11.244368553161621,1.0684125423431396,0.07503235340118408,-0.4977967143058777,0.23847904801368713,11
10.331579208374023,-11.56788444519043,1.1019313335418701,0.04627105966210365,-0.6080483198165894,0.07709623873233795,11
10.353126525878906,-11.56549072265625,1.2767080068588257,0.025499016046524048,-0.6767558455467224,-0.057655736804008484,11
10.120888710021973,-11.124658584594727,1.6433202028274536,0.022835932672023773,-0.7459959983825684,-0.23874534666538239,11
9.605836868286133,-10.247781753540039,2.1344308853149414,0.05745600536465645,-0.8045838475227356,-0.4188362956047058,11
8.999804496765137,-9.273042678833008,2.65906023979187,0.1378811001777649,-0.8535845279693604,-0.5892735719680786,11
8.470386505126953,-8.45362663269043,3.1310172080993652,0.2422739416360855,-0.879682719707489,-0.724025547504425,11
8.036736488342285,-7.806893348693848,3.4853591918945312,0.2422739416360855,-0.879682719707489,-0.724025547504425,11
7.632116317749023,-7.337330341339111,3.703530788421631,0.3061879277229309,-0.8898024559020996,-0.7911352515220642,11
7.32775354385376,-7.141005992889404,3.643376350402832,0.9554474353790283,-0.9116397500038147,-1.3258821964263916,11
7.155371189117432,-7.253533363342285,3.2770636081695557,0.9554474353790283,-0.9116397500038147,-1.3258821964263916,11
7.076362609863281,-7.617751121520996,2.6231472492218018,1.2734194993972778,-0.932411789894104,-1.6475826501846313,11
6.9922661781311035,-8.137292861938477,1.923441767692566,1.3575729131698608,-0.9414662718772888,-1.828672170639038,11
6.901286602020264,-8.746018409729004,1.269525408744812,1.3623664379119873,-0.9590426087379456,-2.0284035205841064,11
6.66904878616333,-9.416694641113281,0.7161656022071838,1.3107026815414429,-0.9579773545265198,-2.1493072509765625,11
6.331167221069336,-10.147225379943848,0.272938996553421,1.235071063041687,-0.9430640935897827,-2.2020363807678223,11
5.909787654876709,-10.66706657409668,0.016759412363171577,0.9378710985183716,-0.9297487139701843,-2.137589693069458,11
5.449801445007324,-10.777199745178223,-0.06703764945268631,0.9085772037506104,-0.9329444169998169,-2.1205461025238037,11
5.011363506317139,-10.566510200500488,-0.0454898327589035,0.8579786419868469,-0.9425314664840698,-2.0848608016967773,11
4.738125324249268,-10.231022834777832,0.05746084079146385,0.7072481513023376,-1.016565203666687,-1.9495761394500732,11
4.721365928649902,-9.907805442810059,0.26096799969673157,0.590072512626648,-1.0991207361221313,-1.8446507453918457,11
4.870105743408203,-9.668086051940918,0.529417872428894,0.4904732406139374,-1.1880676746368408,-1.7695517539978027,11
5.143044471740723,-9.507674217224121,0.8143278360366821,0.42123308777809143,-1.239198923110962,-1.7296055555343628,11
5.45458984375,-9.431059837341309,1.082777738571167,0.3413406014442444,-1.2541121244430542,-1.7168227434158325,11
5.71316385269165,-9.313743591308594,1.2503718137741089,0.2838180363178253,-1.2093724012374878,-1.7413231134414673,11
5.8209028244018555,-9.162610054016113,1.3844470977783203,0.23534992337226868,-1.1188275814056396,-1.782867193222046,11
5.80414342880249,-8.987833023071289,1.4541782140731812,0.2007298469543457,-1.0107064247131348,-1.8228133916854858,11
5.696404457092285,-8.848969459533691,1.4757261276245117,0.148533433675766,-0.840269148349762,-1.8659553527832031,11
5.5359930992126465,-8.755595207214355,1.5068507194519043,0.09367392957210541,-0.5872762799263,-1.910695195198059,11
5.4210710525512695,-8.645163536071777,1.5643115043640137,0.06597787141799927,-0.4120454490184784,-1.93626070022583,11
5.3348798751831055,-8.618826866149902,1.6265608072280884,0.04201012849807739,-0.19633576273918152,-1.96715247631073,11
5.219658851623535,-8.642768859863281,1.63613760471344,0.03135779872536659,0.053461384028196335,-1.9985768795013428,11
5.0592474937438965,-8.642768859863281,1.6481086015701294,0.03668396174907684,0.2159094214439392,-2.0092291831970215,11
4.9060187339782715,-8.637980461120605,1.5834650993347168,0.04786890745162964,0.390607625246048,-2.012424945831299,11
4.7910966873168945,-8.671499252319336,1.4637550115585327,0.05532554164528847,0.5344141125679016,-2.0097618103027344,11
4.649539470672607,-8.712499618530273,1.3102269172668457,0.05319507420063019,0.647328794002533,-1.995381236076355,11
4.484339714050293,-8.789113998413086,1.1426327228546143,0.04201012849807739,0.6952642798423767,-1.9730112552642822,11
4.302380561828613,-8.927978515625,0.9870096445083618,0.013248835690319538,0.7362757325172424,-1.9288041591644287,11
4.139275550842285,-9.011775016784668,0.9056068062782288,-0.022436469793319702,0.738406240940094,-1.866487979888916,11
3.990834951400757,-9.026140213012695,0.9080010056495667,-0.0543934628367424,0.7149710655212402,-1.7919217348098755,11
3.899855375289917,-9.062053680419922,0.9247604012489319,-0.0543934628367424,0.7149710655212402,-1.7919217348098755,11
3.768174171447754,-9.071630477905273,1.0181342363357544,-0.1188400611281395,0.5802190899848938,-1.6060385704040527,11
3.621828556060791,-9.078812599182129,1.125873327255249,-0.1300249993801117,0.5328162312507629,-1.5261460542678833,11
3.444657802581787,-8.93037223815918,1.2814964056015015,-0.11937267333269119,0.45452162623405457,-1.3935245275497437,11
3.2986114025115967,-8.738836288452148,1.4781203269958496,-0.09593755006790161,0.40339043736457825,-1.298186182975769,11
3.178901195526123,-8.52066421508789,1.612195611000061,-0.03894758224487305,0.31763917207717896,-1.1511839628219604,11
3.1214404106140137,-8.348281860351562,1.6816273927688599,0.021770700812339783,0.25372520089149475,-1.031877875328064,11
3.1262288093566895,-8.295609474182129,1.6481086015701294,0.07130403816699982,0.2079201638698578,-0.9413331151008606,11
3.205237627029419,-8.408137321472168,1.4996681213378906,0.12190260738134384,0.16051730513572693,-0.8294836282730103,11
3.291428804397583,-8.587701797485352,1.3413515090942383,0.16557715833187103,0.10832088440656662,-0.7043187618255615,11
3.3632547855377197,-8.81784439086914,1.1330559253692627,0.18155565857887268,0.0673094093799591,-0.593534529209137,11
3.4135329723358154,-9.081207275390625,0.9103952050209045,0.18155565857887268,0.0358850359916687,-0.49766355752944946,11
3.5212721824645996,-9.332897186279297,0.6634931564331055,0.16025099158287048,-0.0008655018173158169,-0.3767596185207367,11
3.557185173034668,-9.419088363647461,0.5078700184822083,0.14373987913131714,-0.0173766128718853,-0.3234313726425171,11
3.466205596923828,-9.299378395080566,0.3737947344779968,0.14373987913131714,-0.0173766128718853,-0.3234313726425171,11
3.3273417949676514,-9.045293807983398,0.29957449436187744,-0.019773388281464577,-0.043474823236465454,0.06750914454460144,11
3.399167776107788,-8.808267593383789,0.2899976670742035,-0.08155690133571625,-0.034952957183122635,0.18415215611457825,11
3.7514147758483887,-8.959102630615234,0.24420857429504395,-0.16517770290374756,-0.02589847706258297,0.3087844252586365,11
4.129698753356934,-9.397541046142578,0.0933738648891449,-0.2908751964569092,0.03162410482764244,0.430753618478775,11
4.402936935424805,-9.783007621765137,-0.08858546614646912,-0.39047446846961975,0.11737536638975143,0.5106461048126221,11
4.656722068786621,-10.032303810119629,-0.1867477297782898,-0.522030770778656,0.23668146133422852,0.6054518222808838,11
4.870105743408203,-10.317214012145996,-0.2298433631658554,-0.6669024229049683,0.3432047665119171,0.6943987607955933,11
4.925172328948975,-10.549750328063965,-0.2298433631658554,-0.8448629379272461,0.4289560317993164,0.8046503663063049,11
4.680664539337158,-10.465953826904297,-0.15322890877723694,-0.9923977255821228,0.5035223364830017,0.9271522164344788,11
4.307168960571289,-9.922170639038086,0.12210428714752197,-1.0946600437164307,0.5626427531242371,1.049121379852295,11
3.96449875831604,-9.023746490478516,0.5461772680282593,-1.2054443359375,0.6212306022644043,1.2520482540130615,11
3.789721965789795,-8.125322341918945,1.1234791278839111,-1.2395317554473877,0.638806939125061,1.378811001777649,11
3.696348190307617,-7.337330341339111,1.6935983896255493,-1.2182271480560303,0.6595789790153503,1.556172251701355,11
3.8016929626464844,-6.688202381134033,2.146401882171631,-1.1473891735076904,0.6681008338928223,1.6738805770874023,11
4.112939357757568,-6.23539924621582,2.4839842319488525,-0.8725590109825134,0.7234929800033569,1.7942519187927246,11
4.568136692047119,-6.110900402069092,2.6734254360198975,-0.8725590109825134,0.7234929800033569,1.7942519187927246,11
5.214870452880859,-6.266523838043213,2.687790632247925,-0.7020551562309265,0.7282865047454834,1.785730004310608,11
