AccX,AccY,AccZ,GyroX,GyroY,GyroZ,Label
0.8888474106788635,2.0817582607269287,10.302848815917969,-0.28075549006462097,0.28781265020370483,-0.05659050494432449,11
0.6874351501464844,2.144007682800293,10.410886764526367,-0.1918085217475891,0.2718341648578644,-0.04327509179711342,11
0.5389946699142456,2.2421698570251465,10.444405555725098,-0.054926078766584396,0.20152877271175385,0.004660394508391619,11
0.491110622882843,2.3068132400512695,10.357914924621582,0.03402087837457657,0.09607070684432983,0.04194355010986328,11
0.529417872428894,2.3810336589813232,10.27890682220459,0.13521802425384521,-0.060518551617860794,0.08348763734102249,11
0.6395511031150818,2.450465440750122,10.063427925109863,0.23694777488708496,-0.21444472670555115,0.1138467788696289,11
0.8143278360366821,2.4815900325775146,9.852738380432129,0.275296151638031,-0.292206734418869,0.11864032596349716,11
1.003769040107727,2.5007436275482178,9.65611457824707,0.26996999979019165,-0.3071199953556061,0.10692276805639267,11
1.1450269222259521,2.5369560718536377,9.538799285888672,0.23907823860645294,-0.27995654940605164,0.10106398165225983,11
1.2168530225753784,2.572869062423706,9.534010887145996,0.17569686472415924,-0.18994435667991638,0.08881380409002304,11
1.2886791229248047,2.575263261795044,9.629778861999512,0.13362017273902893,-0.10792142152786255,0.07975932210683823,11
1.3341689109802246,2.522291421890259,9.80455493927002,0.08621729910373688,0.016178226098418236,0.059519894421100616,11
1.2838906049728394,2.4600422382354736,10.034697532653809,0.06491263955831528,0.1322886198759079,0.03448691964149475,11
1.1234791278839111,2.4384944438934326,10.24538803100586,0.06331478804349899,0.19886569678783417,0.019041040912270546,11
0.8984242081642151,2.4839842319488525,10.434828758239746,0.06704310327768326,0.21377895772457123,0.0185084231197834,11
0.6371569037437439,2.592022657394409,10.506654739379883,0.13894633948802948,0.23561622202396393,0.035019535571336746,11
0.45519760251045227,2.7117326259613037,10.34594440460205,0.16131623089313507,0.22123558819293976,0.0504654161632061,11
0.41449618339538574,2.6925790309906006,10.22144603729248,0.1575879156589508,0.13654956221580505,0.06591129302978516,11
0.5892729163169861,2.615964651107788,10.159195899963379,0.0025965054519474506,-0.22456443309783936,0.039813082665205,11
0.8433575630187988,2.474407434463501,10.204686164855957,-0.026164786890149117,-0.2634454369544983,0.03022598661482334,11
1.1378443241119385,2.167949676513672,10.442011833190918,-0.05386084318161011,-0.3017938435077667,0.017975807189941406,11
1.3509283065795898,1.6864157915115356,10.84902572631836,-0.4884759187698364,-0.5473300218582153,-0.16950520873069763,11
1.4661492109298706,1.1019313335418701,11.311406135559082,-0.5103132128715515,-0.5318841934204102,-0.18069015443325043,11
1.3581109046936035,0.46238020062446594,11.8934965133667,-0.5561181902885437,-0.45998093485832214,-0.20891882479190826,11
1.0779893398284912,-0.07900865375995636,12.355875968933105,-0.5630422234535217,-0.21657519042491913,-0.2163754552602768,11
0.5150526165962219,-0.41210195422172546,12.576143264770508,-0.5502594113349915,-0.16278092563152313,-0.2062557488679886,11
-0.2059013396501541,-0.4073135554790497,12.50671100616455,-0.3121798634529114,0.3314872086048126,0.017975807189941406,11
-0.8816647529602051,-0.12449848651885986,12.178705215454102,-0.11191604286432266,0.5296205282211304,0.2432725876569748,11
-1.2623428106307983,0.26575639843940735,11.618163108825684,0.05372769013047218,0.6079151630401611,0.43661239743232727,11
-1.2288240194320679,0.6084265112876892,10.899304389953613,0.31044885516166687,0.6180348992347717,0.6842790842056274,11
-0.8239046335220337,0.795174241065979,10.061034202575684,0.566637396812439,0.5514578223228455,0.8195636868476868,11
-0.3330933153629303,0.8816647529602051,9.248801231384277,0.7450639009475708,0.42629292607307434,0.7993242144584656,11
0.07900865375995636,0.960673451423645,8.446444511413574,0.758379340171814,0.4081839919090271,0.7849435806274414,11
0.29478609561920166,1.058835744857788,7.6752119064331055,0.8100431561470032,0.30858469009399414,0.688539981842041,11
0.3761889338493347,1.14742112159729,7.064391613006592,0.8052495718002319,0.22443127632141113,0.5862776041030884,11
0.39294835925102234,1.183334231376648,6.59004020690918,0.749857485294342,0.12323414534330368,0.44939517974853516,11
0.3115454912185669,1.125873327255249,6.288071632385254,0.6385406255722046,0.014580377377569675,0.31198012828826904,11
0.19393034279346466,0.9798270463943481,6.163572788238525,0.47183164954185486,-0.10046479105949402,0.1884130984544754,11
0.07422025501728058,0.7927800416946411,6.173149585723877,0.2119147926568985,-0.21444472670555115,0.06857437640428543,11
-0.031124621629714966,0.613214910030365,6.426935195922852,-0.022436469793319702,-0.24853217601776123,-0.0017310036346316338,11
-0.11971008777618408,0.43843817710876465,6.903680801391602,-0.20778702199459076,-0.25598880648612976,-0.04593817517161369,11
-0.16998831927776337,0.26336219906806946,7.502530097961426,-0.41976839303970337,-0.22562967240810394,-0.0880148783326149,11
-0.2899976670742035,0.09576806426048279,8.14956283569336,-0.5918035507202148,-0.14840027689933777,-0.11304785311222076,11
-0.48632222414016724,-0.026336219161748886,8.822632789611816,-0.729218602180481,-0.021104929968714714,-0.12103710323572159,11
-0.795174241065979,-0.08858546614646912,9.481337547302246,-0.7659690976142883,0.0779617428779602,-0.10186290740966797,11
-1.1186907291412354,-0.0933738648891449,10.034697532653809,-0.7356100082397461,0.22123558819293976,-0.02836182899773121,11
-1.3652935028076172,-0.11971008777618408,10.34594440460205,-0.6674350500106812,0.30911731719970703,0.044606633484363556,11
-1.533186912536621,-0.1388636976480484,10.425251960754395,-0.5459985136985779,0.3985968828201294,0.16018441319465637,11
-1.6289550065994263,-0.0694318488240242,10.310030937194824,-0.4895411431789398,0.42256462574005127,0.20811989903450012,11
-1.6864157915115356,0.05027823522686958,9.993996620178223,-0.22749382257461548,0.4507932960987091,0.4318188428878784,11
-1.614589810371399,0.2059013396501541,9.536404609680176,-0.13055762648582458,0.40392303466796875,0.5266245603561401,11
-1.437418818473816,0.4049193561077118,9.057265281677246,-0.02989310212433338,0.2824864685535431,0.6485937833786011,11
-1.2096704244613647,0.6180033087730408,8.621220588684082,0.017509767785668373,0.18235458433628082,0.7157034277915955,11
-0.9295487999916077,0.8071452379226685,8.257302284240723,0.05053199082612991,0.06677679717540741,0.7748238444328308,11
-0.6012439131736755,0.9391255974769592,7.948151111602783,0.05639077350497246,-0.01844184659421444,0.8057156205177307,11
-0.29239189624786377,1.0660183429718018,7.6752119064331055,0.014314068481326103,-0.06957302987575531,0.8014547228813171,11
0.004788403399288654,1.204882025718689,7.459434509277344,-0.022969087585806847,-0.07276873290538788,0.7833457589149475,11
0.21787235140800476,1.3437457084655762,7.358878135681152,-0.12736192345619202,-0.06477948278188705,0.7311493158340454,11
0.3522469103336334,1.5020623207092285,7.430704116821289,-0.21258056163787842,-0.05785546824336052,0.6858769059181213,11
0.4264671802520752,1.6169840097427368,7.603385925292969,-0.34573468565940857,-0.061583783477544785,0.6139736771583557,11
0.4671685993671417,1.6864157915115356,7.943362712860107,-0.4511927664279938,-0.08608414232730865,0.5623098611831665,11
0.46477439999580383,1.755847692489624,8.446444511413574,-0.5161719918251038,-0.11857374757528305,0.5276898145675659,11
0.41689038276672363,1.854009985923767,8.932766914367676,-0.5800859332084656,-0.14200887084007263,0.49147188663482666,11
0.41689038276672363,1.8587983846664429,9.447818756103516,-0.599260151386261,-0.14041103422641754,0.4786891043186188,11
0.48392802476882935,1.8516157865524292,9.98681354522705,-0.5987275242805481,-0.15425905585289001,0.47016721963882446,11
0.553359866142273,1.901893973350525,10.45158863067627,-0.5715640783309937,-0.15319383144378662,0.4648410677909851,11
0.6539163589477539,1.9931728839874268,10.889727592468262,-0.5252264738082886,-0.13188916444778442,0.4563191831111908,11
0.7784148454666138,2.055422067642212,11.23718547821045,-0.4511927664279938,-0.1020626425743103,0.43927547335624695,11
0.8720879554748535,2.076969861984253,11.527183532714844,-0.3718329071998596,-0.061583783477544785,0.4211665093898773,11
0.9151836037635803,2.1128830909729004,11.788151741027832,-0.28874471783638,-0.024300629273056984,0.4030575454235077,11
0.922366201877594,2.160767078399658,11.979687690734863,-0.17796048521995544,0.0358850359916687,0.38494858145713806,11
0.9510966539382935,2.2206220626831055,12.07575511932373,0.03508611395955086,0.12642984092235565,0.33488261699676514,11
1.0085574388504028,2.2445640563964844,12.07575511932373,0.05319507420063019,0.1322886198759079,0.3242303133010864,11
1.0636241436004639,2.2038626670837402,11.984476089477539,0.06970618665218353,0.13814741373062134,0.3178389072418213,11
1.0947487354278564,2.144007682800293,11.931803703308105,0.16557715833187103,0.1003316342830658,0.2619141638278961,11
1.1115081310272217,2.1128830909729004,11.953351020812988,0.20818647742271423,0.038548119366168976,0.23794642090797424,11
1.149815320968628,2.0482394695281982,12.025177001953125,0.24067609012126923,-0.031757257878780365,0.2214353084564209,11
1.1761516332626343,1.9692308902740479,12.176311492919922,0.3072531521320343,-0.15372644364833832,0.19267402589321136,11
1.204882025718689,1.9378069639205933,12.322357177734375,0.42123308777809143,-0.21497733891010284,0.15432563424110413,11
1.2000936269760132,1.9521721601486206,12.35108757019043,0.48195135593414307,-0.18941174447536469,0.13834713399410248,11
1.1354501247406006,2.0266916751861572,12.228983879089355,0.5613112449645996,-0.13135655224323273,0.1143793985247612,11
1.1378443241119385,2.036268472671509,11.8934965133667,0.6449320316314697,-0.12017159909009933,0.0717700719833374,11
1.3317747116088867,1.9306243658065796,11.457451820373535,0.6380079984664917,-0.2714346945285797,0.016910573467612267,11
1.535581111907959,1.777395486831665,11.048044204711914,0.5575829148292542,-0.49087268114089966,-0.06564498692750931,11
1.854009985923767,1.5499463081359863,10.837054252624512,0.4111133813858032,-0.7214956283569336,-0.17802706360816956,11
2.1990742683410645,1.0851719379425049,10.920851707458496,0.21937142312526703,-0.9201616048812866,-0.3090507388114929,11
2.340332269668579,0.41689038276672363,11.162965774536133,0.03615134581923485,-0.9968583583831787,-0.432151734828949,11
2.313995838165283,-0.1604115068912506,11.546337127685547,-0.10445941239595413,-0.9196289777755737,-0.5338814854621887,11
2.050633668899536,-0.6587047576904297,11.96292781829834,-0.10445941239595413,-0.9196289777755737,-0.5338814854621887,11
1.6026188135147095,-1.0468647480010986,12.377424240112305,-0.14493827521800995,-0.8397365212440491,-0.5685015320777893,11
1.003769040107727,-1.4422072172164917,12.463615417480469,-0.06664364039897919,0.0784943550825119,-0.6260241270065308,11
0.4073135554790497,-1.7965490818023682,12.13321590423584,0.11764167249202728,0.49020692706108093,-0.5519904494285583,11
-0.16519992053508759,-1.9764134883880615,11.488576889038086,0.37702590227127075,0.7868742942810059,-0.4060535132884979,11
-0.5246294736862183,-1.9979612827301025,10.681431770324707,0.5405392050743103,0.831614077091217,-0.289343923330307,11
-0.5509656667709351,-1.9162591695785522,9.867103576660156,0.7184330821037292,0.7336126565933228,-0.1412765234708786,11
-0.3283049166202545,-1.8348562717437744,9.117119789123535,0.8409348726272583,0.48807644844055176,-0.025698747485876083,11
0.009576806798577309,-1.7103577852249146,8.444049835205078,0.9192295074462891,0.1104513481259346,0.05259587988257408,11
0.5437830686569214,-1.612195611000061,7.917026519775391,0.9240230917930603,-0.18088988959789276,0.06271559745073318,11
1.1522095203399658,-1.5092449188232422,7.550414562225342,0.8814137578010559,-0.4125780761241913,0.03022598661482334,11
1.7031751871109009,-1.3772644996643066,7.368454933166504,0.820162832736969,-0.5143077969551086,-0.020372580736875534,11
2.141613483428955,-1.2336124181747437,7.239168167114258,0.7184330821037292,-0.5366777181625366,-0.10399337112903595,11
2.404975652694702,-1.0564415454864502,7.1362175941467285,0.6385406255722046,-0.5036554932594299,-0.16471165418624878,11
2.4001872539520264,-0.7855974435806274,7.090727806091309,0.41857001185417175,-0.31830495595932007,-0.30425718426704407,11
2.1966800689697266,-0.44322657585144043,7.097910404205322,0.25931766629219055,-0.11591067165136337,-0.38102054595947266,11
1.9162591695785522,-0.08619125932455063,7.169736385345459,0.09367392957210541,0.1631803810596466,-0.44813022017478943,11
1.578676700592041,0.17717093229293823,7.239168167114258,-0.013381989672780037,0.37249866127967834,-0.47848936915397644,11
1.18094003200531,0.38815996050834656,7.2678985595703125,-0.07303503900766373,0.5115115642547607,-0.49073952436447144,11
0.773626446723938,0.5844845175743103,7.294234752655029,-0.12523145973682404,0.6222957968711853,-0.4822176694869995,11
0.3785831332206726,0.8553285598754883,7.37324333190918,-0.12523145973682404,0.6222957968711853,-0.4822176694869995,11
0.021547814831137657,1.1617863178253174,7.433098316192627,-0.11085081100463867,0.5722298622131348,-0.4081839919090271,11
-0.26575639843940735,1.4781203269958496,7.478588104248047,-0.08901353180408478,0.4950004816055298,-0.36018192768096924,11
-0.39055415987968445,1.7534534931182861,7.543231964111328,-0.04214328154921532,0.32988935708999634,-0.2813546657562256,11
-0.4073135554790497,1.9931728839874268,7.591414928436279,-0.014447222463786602,0.20046353340148926,-0.23128871619701385,11
-0.29957449436187744,2.211045265197754,7.689577102661133,0.029227331280708313,0.008188978768885136,-0.16684211790561676,11
-0.1173158809542656,2.3786394596099854,7.739855766296387,0.05426030606031418,-0.09780170768499374,-0.1407439112663269,11
0.15562310814857483,2.4648306369781494,7.768586158752441,0.06438001990318298,-0.20166192948818207,-0.12796111404895782,11
0.4528034031391144,2.5079262256622314,7.802104949951172,0.0521298423409462,-0.2714346945285797,-0.14340700209140778,11
0.673069953918457,2.517503023147583,7.890690326690674,0.006324821151793003,-0.34227269887924194,-0.17855969071388245,11
0.8262988328933716,2.493561029434204,7.9744873046875,-0.05386084318161011,-0.3598490357398987,-0.22383208572864532,11
0.9487023949623108,2.4193408489227295,8.207024574279785,-0.12150314450263977,-0.34280529618263245,-0.2568543255329132,11
1.0181342363357544,2.316390037536621,8.515875816345215,-0.19713468849658966,-0.2911415100097656,-0.2909417748451233,11
1.0109516382217407,2.208651065826416,8.892065048217773,-0.23921139538288116,-0.2192382663488388,-0.30585503578186035,11
0.9487023949623108,2.1080946922302246,9.285013198852539,-0.24347232282161713,-0.12922608852386475,-0.30798548460006714,11
0.8481459617614746,2.0027496814727783,9.65611457824707,-0.21950457990169525,-0.04826837033033371,-0.29360485076904297,11
0.713771402835846,1.9521721601486206,9.962871551513672,-0.16464507579803467,0.005525896325707436,-0.2579195499420166,11
0.5844845175743103,1.96683669090271,10.209474563598633,-0.10658987611532211,0.02736317366361618,-0.21850591897964478,11
0.491110622882843,2.036268472671509,10.3363676071167,-0.010186290368437767,0.03162410482764244,-0.15352670848369598,11
0.46238020062446594,2.1487960815429688,10.333972930908203,0.11178289353847504,0.02097177505493164,-0.07576470077037811,11
0.5150526165962219,2.278082847595215,10.22144603729248,0.19806677103042603,-0.01045259926468134,-0.02197043038904667,11
0.6419453024864197,2.4600422382354736,10.092158317565918,0.24866533279418945,-0.050931453704833984,0.004127778112888336,11
0.7616553902626038,2.618358850479126,9.946112632751465,0.31044885516166687,-0.10525833815336227,0.031823836266994476,11
0.8601169586181641,2.7787704467773438,9.874286651611328,0.3386775255203247,-0.11697590351104736,0.03608476743102074,11
0.9032126069068909,2.927210807800293,9.80455493927002,0.3716997504234314,-0.08235582709312439,0.033954303711652756,11
0.9175778031349182,3.0253732204437256,9.756670951843262,0.38767823576927185,-0.0173766128718853,0.026497671380639076,11
0.8792705535888672,3.1429882049560547,9.735123634338379,0.389808714389801,0.036417655646800995,0.02063889056444168,11
0.8071452379226685,3.27227520942688,9.68005657196045,0.36584097146987915,0.09127715229988098,0.016910573467612267,11
0.756866991519928,3.382408380508423,9.725546836853027,0.3285578191280365,0.08701622486114502,0.009986559860408306,11
0.7018003463745117,3.403956174850464,9.876680374145508,0.20605601370334625,-0.008854749612510204,-0.04274247586727142,11
0.7448959946632385,3.3033998012542725,10.13525390625,0.1916753649711609,-0.01364829856902361,-0.04966649040579796,11
0.7401075959205627,3.078045606613159,10.54256820678711,0.15652267634868622,-0.029626794159412384,-0.0768299326300621,11
0.5605424642562866,2.8505964279174805,11.019312858581543,0.14959865808486938,0.004460663069039583,-0.09334104508161545,11
0.17956513166427612,2.8266544342041016,11.431116104125977,0.1906101405620575,0.08062482625246048,-0.07043853402137756,11
-0.15322890877723694,3.0014309883117676,11.680412292480469,0.2555893361568451,0.10512518137693405,-0.0038614696823060513,11
-0.2298433631658554,3.157353401184082,11.649287223815918,0.2939377427101135,0.022569624707102776,0.07975932210683823,11
0.031124621629714966,3.3010056018829346,11.464634895324707,0.29180726408958435,-0.08981245756149292,0.12130340933799744,11
0.48632222414016724,3.3848025798797607,11.328165054321289,0.2779592275619507,-0.13082392513751984,0.13195574283599854,11
0.9487023949623108,3.1693243980407715,11.438298225402832,0.014846685342490673,-0.6416031718254089,0.08774857223033905,11
1.3581109046936035,2.6039936542510986,11.642105102539062,-0.12949238717556,-0.7422676682472229,0.005193010903894901,11
1.5906476974487305,1.877951979637146,12.058695793151855,-0.12949238717556,-0.7422676682472229,0.005193010903894901,11
1.581070899963379,1.2144588232040405,12.49474048614502,-0.25359204411506653,-0.5952655076980591,-0.1822880059480667,11
1.2814964056015015,0.6180033087730408,12.6458740234375,-0.14547088742256165,-0.26557591557502747,-0.25312599539756775,11
0.7448959946632385,0.09576806426048279,12.394184112548828,0.03668396174907684,0.09340762346982956,-0.25259336829185486,11
0.028730420395731926,-0.1843535304069519,11.773786544799805,0.2630459666252136,0.4587825536727905,-0.1828206181526184,11
-0.7209540009498596,-0.16759411990642548,10.786776542663574,0.4808861315250397,0.7895374298095703,-0.060851436108350754,11
-1.2336124181747437,-0.033518824726343155,9.593865394592285,0.6566495895385742,1.0090420246124268,0.08561810106039047,11
-1.490091323852539,0.19153612852096558,8.408137321472168,0.7381399273872375,1.054847002029419,0.22729410231113434,11
-1.5427637100219727,0.4456208050251007,7.3564839363098145,0.7317485213279724,0.9493223428726196,0.335415244102478,11
-1.4661492109298706,0.7616553902626038,6.520608425140381,0.643334150314331,0.7352105379104614,0.40572062134742737,11
-1.1929110288619995,0.9917980432510376,5.955277442932129,0.48195135593414307,0.4428040385246277,0.4264926612377167,11
-0.8215104341506958,1.0851719379425049,5.708375453948975,0.35625386238098145,0.24573594331741333,0.41743817925453186,11
-0.3761889338493347,1.0133458375930786,5.691616058349609,0.35625386238098145,0.24573594331741333,0.41743817925453186,11
0.07900865375995636,0.7832032442092896,5.967248439788818,-0.17742787301540375,-0.3678382933139801,0.25871846079826355,11
0.47913962602615356,0.48632222414016724,6.475118637084961,-0.6876745223999023,-0.47276371717453003,0.017975807189941406,11
0.773626446723938,0.18914192914962769,7.0715742111206055,-0.6876745223999023,-0.47276371717453003,0.017975807189941406,11
0.8816647529602051,-0.05027823522686958,7.691971302032471,-0.7435992360115051,-0.4317522644996643,-0.013981183059513569,11
0.795174241065979,-0.22026655077934265,8.307580947875977,-0.8459281921386719,-0.25652143359184265,-0.06138405203819275,11
0.574907660484314,-0.34985271096229553,8.863334655761719,-0.8864070177078247,-0.012050448916852474,-0.07523208111524582,11
0.20350714027881622,-0.4097077548503876,9.361627578735352,-0.8656349778175354,0.22283343970775604,-0.0454055592417717,11
-0.2899976670742035,-0.30196869373321533,9.692028045654297,-0.7878063917160034,0.3954011797904968,0.03608476743102074,11
-0.7425017952919006,-0.07182604819536209,9.771036148071289,-0.6642393469810486,0.5296205282211304,0.16124965250492096,11
-1.0444705486297607,0.20111294090747833,9.601048469543457,-0.49646517634391785,0.601523756980896,0.3386109471321106,11
-1.1402385234832764,0.5461772680282593,9.277831077575684,-0.37130028009414673,0.561577558517456,0.4786891043186188,11
-1.0564415454864502,0.9391255974769592,8.87051773071289,-0.3073863089084625,0.5040549635887146,0.5527228116989136,11
-0.8792705535888672,1.3533225059509277,8.551789283752441,-0.3073863089084625,0.5040549635887146,0.5527228116989136,11
-0.6994061470031738,1.7486650943756104,8.278850555419922,-0.17476479709148407,0.21218110620975494,0.7002575397491455,11
-0.44322657585144043,2.0242974758148193,8.1325044631958,-0.14440564811229706,0.07423342764377594,0.7130403518676758,11
-0.15801730751991272,2.2469582557678223,8.019977569580078,-0.1396121084690094,-0.008854749612510204,0.6896052360534668,11
0.10055647045373917,2.455253839492798,7.993640899658203,-0.15559059381484985,-0.05572500079870224,0.6363435983657837,11
0.2801215946674347,2.6015994548797607,7.998429298400879,-0.19500422477722168,-0.06318163126707077,0.5644403696060181,11
0.36900633573532104,2.687790632247925,8.077438354492188,-0.2029934674501419,-0.06371425092220306,0.5511249303817749,11
0.39294835925102234,2.747645616531372,8.20223617553711,-0.21098271012306213,-0.05679023638367653,0.535679042339325,11
0.3737947344779968,2.790741443634033,8.491933822631836,-0.3414737582206726,-0.014713531360030174,0.38707906007766724,11
0.32112228870391846,2.8482022285461426,8.820239067077637,-0.39153972268104553,0.03055887296795845,0.34500235319137573,11
0.2852092683315277,2.795529842376709,9.174580574035645,-0.4144422113895416,0.0571896992623806,0.32103461027145386,11
0.26575639843940735,2.75003981590271,9.603442192077637,-0.4139096140861511,0.06358109414577484,0.3066539466381073,11
0.2777273952960968,2.7141268253326416,10.00836181640625,-0.4037899076938629,0.034287188202142715,0.30186042189598083,11
0.32351651787757874,2.70455002784729,10.470742225646973,-0.36863720417022705,-0.01045259926468134,0.2949363887310028,11
0.4671685993671417,2.663848638534546,10.947188377380371,-0.30685368180274963,-0.05679023638367653,0.2949363887310028,11
0.6299743056297302,2.572869062423706,11.371260643005371,-0.19127590954303741,-0.09354077279567719,0.29014283418655396,11
0.8095394372940063,2.45285964012146,11.701959609985352,-0.07090457528829575,-0.11644328385591507,0.2736317217350006,11
0.9367313981056213,2.3594858646392822,11.938985824584961,0.044140592217445374,-0.12017159909009933,0.2528596818447113,11
0.9870096445083618,2.3020248413085938,12.022783279418945,0.22789329290390015,-0.08661676198244095,0.21504391729831696,11
0.9510966539382935,2.2373814582824707,11.946168899536133,0.34719938039779663,-0.05039883777499199,0.1900109350681305,11
0.8912416100502014,2.2206220626831055,11.735479354858398,0.4686359465122223,-0.014713531360030174,0.1676410436630249,11
0.7975684404373169,2.2254104614257812,11.409567832946777,0.5501262545585632,-0.01045259926468134,0.15432563424110413,11
0.756866991519928,2.2637176513671875,11.100716590881348,0.5799527764320374,-0.02589847706258297,0.15485824644565582,11
0.7879916429519653,2.2876596450805664,10.877756118774414,0.5799527764320374,-0.02589847706258297,0.15485824644565582,11
0.8529343605041504,2.3020248413085938,10.79395866394043,0.52775639295578,-0.13242177665233612,0.1585865616798401,11
0.9295487999916077,2.383427858352661,10.841842651367188,0.4888753890991211,-0.13881318271160126,0.15485824644565582,11
0.9750386476516724,2.532167673110962,10.96664047241211,0.4462660551071167,-0.06211639940738678,0.13302096724510193,11
0.8649053573608398,2.7835588455200195,11.045649528503418,0.4382767975330353,0.08595099300146103,0.10532491654157639,11
0.8696937561035156,2.9798831939697266,11.040861129760742,0.43241801857948303,0.14560404419898987,0.07869409024715424,11
0.9798270463943481,3.0086138248443604,10.901698112487793,0.2950029671192169,-0.21604257822036743,-0.06457975506782532,11
1.1665748357772827,2.989459991455078,10.714950561523438,0.2950029671192169,-0.21604257822036743,-0.06457975506782532,11
1.535581111907959,2.9343934059143066,10.671854972839355,0.19487106800079346,-0.44826337695121765,-0.14926578104496002,11
2.0386626720428467,2.5800516605377197,10.817900657653809,0.03615134581923485,-0.7683659195899963,-0.2818872928619385,11
2.45285964012146,1.9354127645492554,11.021707534790039,-0.12150314450263977,-0.978216826915741,-0.43481481075286865,11
2.6255414485931396,1.1522095203399658,11.414356231689453,-0.27329885959625244,-0.9936626553535461,-0.6100456118583679,11
2.5800516605377197,0.41689038276672363,11.895890235900879,-0.32709312438964844,-0.8397365212440491,-0.7416019439697266,11
2.1727380752563477,-0.23942017555236816,12.267291069030762,-0.3020601272583008,-0.5846132040023804,-0.8135051727294922,11
1.55712890625,-0.8191162347793579,12.35108757019043,-0.15292751789093018,-0.08022536337375641,-0.839070737361908,11
0.8191162347793579,-1.2072762250900269,12.049118995666504,-0.0069905915297567844,0.27449724078178406,-0.7890048027038574,11
0.13168109953403473,-1.370081901550293,11.397597312927246,0.1788925677537918,0.6515897512435913,-0.6643725037574768,11
-0.27054479718208313,-1.3509283065795898,10.607211112976074,0.340275377035141,0.8795495629310608,-0.5019245147705078,11
-0.36900633573532104,-1.2503718137741089,9.759065628051758,0.4803535044193268,0.9296155571937561,-0.3026593327522278,11
-0.29239189624786377,-1.1186907291412354,8.971074104309082,0.5479958057403564,0.8055158853530884,-0.17642922699451447,11
-0.009576806798577309,-0.9702502489089966,8.307580947875977,0.5762245059013367,0.5882083773612976,-0.09760197252035141,11
0.39534255862236023,-0.8119336366653442,7.811681747436523,0.5783549547195435,0.3954011797904968,-0.07576470077037811,11
0.8792705535888672,-0.7233482003211975,7.397185325622559,0.5538545846939087,0.18288719654083252,-0.09653674066066742,11
1.3868412971496582,-0.6467337608337402,7.11227560043335,0.4984624683856964,0.03162410482764244,-0.16364642977714539,11
1.8348562717437744,-0.5653308629989624,6.915651798248291,0.4116459786891937,-0.041344355791807175,-0.26111525297164917,11
2.096123695373535,-0.45519760251045227,6.774393558502197,0.30192697048187256,-0.008322132751345634,-0.37409651279449463,11
2.1344308853149414,-0.24660277366638184,6.59004020690918,0.13362017273902893,0.13761478662490845,-0.5125768184661865,11
1.9354127645492554,0.0454898327589035,6.501454830169678,0.004194355104118586,0.26384490728378296,-0.5951323509216309,11
1.5499463081359863,0.34506431221961975,6.49906063079834,-0.16304722428321838,0.3959338068962097,-0.6803510189056396,11
1.0181342363357544,0.5318120718002319,6.664260387420654,-0.3180386424064636,0.4726305902004242,-0.7330800294876099,11
0.45519760251045227,0.634762704372406,6.965929985046387,-0.4298880994319916,0.4843481481075287,-0.7368083596229553,11
-0.05506663769483566,0.7257423996925354,7.411550521850586,-0.4884759187698364,0.43747788667678833,-0.6910033226013184,11
-0.45519760251045227,0.9247604012489319,7.857171535491943,-0.48687806725502014,0.3453352451324463,-0.5637080073356628,11
-0.7233482003211975,1.1953052282333374,8.21420669555664,-0.3760938346385956,0.14081048965454102,-0.3117138147354126,11
-0.7712322473526001,1.4948797225952148,8.530241012573242,-0.3760938346385956,0.14081048965454102,-0.3117138147354126,11
-0.6419453024864197,1.801337480545044,8.753201484680176,-0.2967339754104614,0.001797580742277205,-0.1822880059480667,11
-0.34267011284828186,2.0649988651275635,8.911218643188477,-0.14547088742256165,-0.20485763251781464,-0.04434032365679741,11
0.0454898327589035,2.254140853881836,8.949525833129883,-0.11617697775363922,-0.23841246962547302,-0.03262276202440262,11
0.4264671802520752,2.3810336589813232,8.899248123168945,-0.05865439400076866,-0.29806551337242126,-0.02942706272006035,11
0.713771402835846,2.4672248363494873,8.83699893951416,-0.0330887995660305,-0.34120744466781616,-0.050199106335639954,11
0.9726444482803345,2.5632922649383545,8.7484130859375,-0.03255618363618851,-0.3353486657142639,-0.09334104508161545,11
1.1450269222259521,2.6327240467071533,8.719682693481445,-0.05013252794742584,-0.2852827310562134,-0.14393961429595947,11
1.1881226301193237,2.642300844192505,8.760383605957031,-0.0762307345867157,-0.21391209959983826,-0.19773387908935547,11
1.0947487354278564,2.6758196353912354,8.853757858276367,-0.10339418053627014,-0.1345522403717041,-0.2472672164440155,11
0.9343371987342834,2.6949732303619385,8.966285705566406,-0.12043790519237518,-0.07436657696962357,-0.2808220684528351,11
0.713771402835846,2.7165210247039795,9.129091262817383,-0.14280779659748077,-0.02696371078491211,-0.3090507388114929,11
0.4958990216255188,2.706944227218628,9.31853199005127,-0.14227518439292908,-0.018974462524056435,-0.30798548460006714,11
0.2801215946674347,2.6901848316192627,9.517251014709473,-0.12043790519237518,-0.02163754589855671,-0.27336543798446655,11
0.12449848651885986,2.6710312366485596,9.725546836853027,-0.07303503900766373,-0.049866221845149994,-0.22170162200927734,11
0.023942016065120697,2.6542718410491943,9.8599214553833,-0.030425718054175377,-0.07436657696962357,-0.16790735721588135,11
-0.021547814831137657,2.6494834423065186,9.938929557800293,0.05532554164528847,-0.12762823700904846,-0.08588441461324692,11
-0.05267243832349777,2.6925790309906006,9.989208221435547,0.11497858911752701,-0.1659766137599945,-0.02942706272006035,11
-0.12689268589019775,2.776376247406006,9.984419822692871,0.2012624591588974,-0.1878138929605484,0.054193731397390366,11
-0.20111294090747833,2.836231231689453,10.039485931396484,0.27263307571411133,-0.19207483530044556,0.13302096724510193,11
-0.3163338899612427,2.864961624145508,10.061034202575684,0.30032914876937866,-0.18941174447536469,0.1671084314584732,11
-0.4264671802520752,2.922422409057617,10.063427925109863,0.41004812717437744,-0.14840027689933777,0.305056095123291,11
-0.5102642178535461,3.018190622329712,10.056245803833008,0.48514705896377563,-0.10845403373241425,0.41903603076934814,11
-0.48153382539749146,3.133411407470703,9.970054626464844,0.5479958057403564,-0.0914103090763092,0.5463314056396484,11
-0.2537853717803955,3.224391222000122,9.76864242553711,0.5703657269477844,-0.10366048663854599,0.6123758554458618,11
0.14844051003456116,3.2387564182281494,9.541193008422852,0.5533219575881958,-0.16331353783607483,0.6214303374290466,11
0.5892729163169861,3.1860837936401367,9.38317584991455,0.5027233958244324,-0.24959741532802582,0.5873428583145142,11
0.8864531517028809,3.1525650024414062,9.419088363647461,0.5027233958244324,-0.24959741532802582,0.5873428583145142,11
0.8720879554748535,3.15974760055542,9.725546836853027,0.2843506336212158,-0.5361450910568237,0.4243622124195099,11
0.7018003463745117,3.293823003768921,10.202292442321777,0.19540368020534515,-0.5995264649391174,0.38707906007766724,11
0.613214910030365,3.4135329723358154,10.722132682800293,0.12350045144557953,-0.6682339906692505,0.4025249183177948,11
0.7281365990638733,3.4302923679351807,11.127052307128906,0.02336854860186577,-0.8088447451591492,0.44034069776535034,11
1.0516531467437744,3.3943793773651123,11.342530250549316,-0.07889381796121597,-0.8583781123161316,0.44992780685424805,11
1.6457144021987915,3.154959201812744,11.59900951385498,-0.17423216998577118,-0.8738239407539368,0.41956865787506104,11
2.2828712463378906,2.6470892429351807,11.888708114624023,-0.30525583028793335,-0.8663673400878906,0.32369768619537354,11
2.7404630184173584,1.9812018871307373,12.181099891662598,-0.42083361744880676,-0.7401372194290161,0.15432563424110413,11
2.8242602348327637,1.2767080068588257,12.461221694946289,-0.45545369386672974,-0.5191013813018799,0.005725627299398184,11
2.491166830062866,0.7233482003211975,12.653057098388672,-0.42030099034309387,-0.21124902367591858,-0.10612384229898453,11
1.8803461790084839,0.32112228870391846,12.578536987304688,-0.34626731276512146,0.04973306506872177,-0.15725502371788025,11
1.0779893398284912,0.043095629662275314,12.19067668914795,-0.34626731276512146,0.04973306506872177,-0.15725502371788025,11
0.19393034279346466,-0.07182604819536209,11.558307647705078,-0.020838620141148567,0.6883402466773987,-0.03688369318842888,11
-0.5940613150596619,-0.016759412363171577,10.7604398727417,0.13894633948802948,0.8923323750495911,0.09200949966907501,11
-1.1139023303985596,0.20111294090747833,9.74709415435791,0.3370796740055084,1.1097065210342407,0.28854498267173767,11
-1.346139907836914,0.5461772680282593,8.654740333557129,0.5298868417739868,1.2417954206466675,0.5079829692840576,11
-1.3557167053222656,0.9199720025062561,7.5791449546813965,0.6177685856819153,1.232740879058838,0.6358109712600708,11
-1.202487826347351,1.2599486112594604,6.539762020111084,0.6257578134536743,1.1523158550262451,0.6869421601295471,11
-0.8768763542175293,1.5068507194519043,5.6892218589782715,0.5224302411079407,0.8848757743835449,0.6821485757827759,11
-0.5030816197395325,1.7319056987762451,5.243600845336914,0.3802216053009033,0.6020563840866089,0.6315500140190125,11
-0.0933738648891449,1.8899229764938354,5.133467674255371,0.07982590049505234,0.08488575369119644,0.4856131076812744,11
0.29957449436187744,1.875557780265808,5.313032627105713,0.07982590049505234,0.08488575369119644,0.4856131076812744,11
0.6994061470031738,1.6002246141433716,5.825691223144531,-0.40059420466423035,-0.5233622789382935,0.1788259893655777,11
1.058835744857788,1.1761516332626343,6.575675010681152,-0.6930006742477417,-0.7433329224586487,-0.04913387447595596,11
1.204882025718689,0.7520785927772522,7.325359344482422,-0.9055812358856201,-0.7731594443321228,-0.22116900980472565,11
1.18094003200531,0.36900633573532104,8.103774070739746,-1.0792142152786255,-0.6336139440536499,-0.3532578945159912,11
1.025316834449768,0.019153613597154617,8.89445972442627,-1.1665632724761963,-0.42536085844039917,-0.42309725284576416,11
0.6587047576904297,-0.22266076505184174,9.574711799621582,-1.0797468423843384,0.4433366656303406,-0.34793174266815186,11
0.16998831927776337,-0.3259107172489166,10.082581520080566,-1.0797468423843384,0.4433366656303406,-0.34793174266815186,11
-0.3737947344779968,-0.29239189624786377,10.36988639831543,-1.0547138452529907,0.4838155210018158,-0.3244965970516205,11
-0.8984242081642151,-0.10295066982507706,10.43004035949707,-0.8810808658599854,0.6510571241378784,-0.15512455999851227,11
-1.303044319152832,0.08619125932455063,10.331579208374023,-0.720696747303009,0.6638398766517639,0.013714875094592571,11
-1.5260043144226074,0.3163338899612427,10.125677108764648,-0.5657052993774414,0.5866104960441589,0.19107617437839508,11
-1.5834650993347168,0.5677250623703003,9.900622367858887,-0.40964868664741516,0.4539889991283417,0.3684374690055847,11
-1.4853029251098633,0.8577227592468262,9.65611457824707,-0.2669074535369873,0.2931388020515442,0.5260919332504272,11
-1.2527660131454468,1.1522095203399658,9.457395553588867,-0.14227518439292908,0.11631012707948685,0.6469959020614624,11
-0.9127894043922424,1.437418818473816,9.280224800109863,-0.05545869469642639,-0.01045259926468134,0.7167686820030212,11
-0.5677250623703003,1.6888099908828735,9.090784072875977,0.04999937489628792,-0.12762823700904846,0.771628201007843,11
-0.1867477297782898,1.9162591695785522,8.87291145324707,0.10059794038534164,-0.16863970458507538,0.7737586498260498,11
0.08379705995321274,2.120065689086914,8.693047523498535,0.12190260738134384,-0.18461820483207703,0.7540518045425415,11
0.27054479718208313,2.3546974658966064,8.590096473693848,0.0942065492272377,-0.1974010020494461,0.7055837512016296,11
0.41449618339538574,2.5632922649383545,8.573336601257324,0.03135779872536659,-0.19527052342891693,0.658180832862854,11
