AccX,AccY,AccZ,GyroX,GyroY,GyroZ,Label
3.679588794708252,-6.779181957244873,2.965517997741699,0.8164345622062683,0.9104413390159607,-1.534135341644287,11
3.5500025749206543,-6.609193801879883,2.2685060501098633,0.804716944694519,0.8720929622650146,-1.352513074874878,11
3.653252601623535,-6.592434406280518,1.6672621965408325,0.7424008250236511,0.7815481424331665,-1.2097718715667725,11
3.703530788421631,-6.582857608795166,1.2743138074874878,0.643334150314331,0.6659703850746155,-1.0718241930007935,11
3.6915597915649414,-6.5732808113098145,0.9678560495376587,0.5533219575881958,0.5876757502555847,-0.9541159272193909,11
3.787327766418457,-6.774393558502197,0.8239046335220337,0.4345484972000122,0.5189682245254517,-0.8092442154884338,11
3.787327766418457,-6.57806921005249,0.7975684404373169,0.32216641306877136,0.4609130024909973,-0.6989926099777222,11
3.8830959796905518,-6.14681339263916,0.7616553902626038,0.1900775134563446,0.3639768064022064,-0.585012674331665,11
4.033930778503418,-5.883152008056641,0.756866991519928,0.08195636421442032,0.25212734937667847,-0.5179029703140259,11
4.108150959014893,-5.859210014343262,0.795174241065979,-0.007523208390921354,0.18768073618412018,-0.4800872206687927,11
4.15603494644165,-5.926547050476074,0.9247604012489319,-0.11670958995819092,0.12429937720298767,-0.43641266226768494,11
4.141669750213623,-5.957671642303467,1.1857284307479858,-0.2024608552455902,0.0673094093799591,-0.390607625246048,11
4.120121955871582,-6.034286022186279,1.456572413444519,-0.27542930841445923,0.006058512721210718,-0.31917044520378113,11
4.086603164672852,-6.189908981323242,1.6481086015701294,-0.32709312438964844,-0.03761604055762291,-0.24034319818019867,11
4.038719177246094,-6.398204803466797,1.8444331884384155,-0.35372394323349,-0.050931453704833984,-0.15672241151332855,11
4.148852348327637,-6.712144374847412,2.0242974758148193,-0.37875691056251526,-0.08288844674825668,-0.03581846132874489,11
4.469974517822266,-7.038054943084717,1.8157026767730713,-0.38727879524230957,-0.09567124396562576,-0.01664426550269127,11
4.6471452713012695,-7.401973724365234,1.7486650943756104,-0.38727879524230957,-0.09567124396562576,-0.01664426550269127,11
4.750096321105957,-7.684788703918457,1.7630302906036377,-0.5704988837242126,-0.30126121640205383,0.24966399371623993,11
4.956296920776367,-7.821258544921875,1.801337480545044,-0.661043643951416,-0.35185977816581726,0.3572525382041931,11
5.087977886199951,-7.806893348693848,1.9282301664352417,-0.7483927607536316,-0.3667730391025543,0.4643084406852722,11
5.313032627105713,-7.7470383644104,2.1272482872009277,-0.7803497910499573,-0.3662404417991638,0.5074504017829895,11
5.808931827545166,-7.931391716003418,2.2852654457092285,-0.868830680847168,-0.3374791443347931,0.6171693801879883,11
6.347926616668701,-8.465598106384277,2.2828712463378906,-0.9370055794715881,-0.30765262246131897,0.6517894268035889,11
6.664260387420654,-9.026140213012695,2.1966800689697266,-1.0041152238845825,-0.25758665800094604,0.6560503840446472,11
6.819883346557617,-9.361627578735352,2.0626046657562256,-1.067496657371521,-0.20752070844173431,0.6640396118164062,11
6.831854343414307,-9.617807388305664,1.96683669090271,-1.1564435958862305,-0.12283468246459961,0.6858769059181213,11
6.704961776733398,-9.809343338012695,1.8875287771224976,-1.2773475646972656,-0.018974462524056435,0.7396711707115173,11
6.33834981918335,-9.663297653198242,1.8899229764938354,-1.3790773153305054,0.089146688580513,0.8137048482894897,11
5.720346450805664,-9.040505409240723,2.1511902809143066,-1.4408608675003052,0.1844850480556488,0.8967930674552917,11
5.147832870483398,-8.151957511901855,2.556109666824341,-1.4760135412216187,0.29686713218688965,1.0331429243087769,11
4.745307922363281,-7.260715961456299,3.0062196254730225,-1.4477847814559937,0.39433595538139343,1.2136998176574707,11
4.587290287017822,-6.580463409423828,3.3728315830230713,-1.3796099424362183,0.4380105137825012,1.3308755159378052,11
4.651933670043945,-6.130053997039795,3.5883097648620605,-1.2294120788574219,0.47795674204826355,1.4709537029266357,11
4.870105743408203,-5.945700645446777,3.619434356689453,-1.1670958995819092,0.4806198179721832,1.50983464717865,11
5.162198066711426,-5.940912246704102,3.494935989379883,-0.9359403848648071,0.4534563720226288,1.5982489585876465,11
5.538387298583984,-6.125265598297119,3.229179620742798,-0.767566978931427,0.3969990313053131,1.6248798370361328,11
5.883152008056641,-6.508637428283691,2.8505964279174805,-0.5891404151916504,0.26544275879859924,1.6275428533554077,11
6.2090630531311035,-7.026083946228027,2.409764051437378,-0.47569313645362854,0.09180977195501328,1.6222167015075684,11
6.566098213195801,-7.682394504547119,1.9716250896453857,-0.45651891827583313,0.04973306506872177,1.6216840744018555,11
6.975506782531738,-8.324339866638184,1.5762825012207031,-0.3707676827907562,-0.399795264005661,1.607303500175476,11
7.390002727508545,-8.882488250732422,1.22642982006073,-0.38141998648643494,-0.6160375475883484,1.577476978302002,11
7.756615161895752,-9.227252960205078,0.9415197968482971,-0.4288228750228882,-0.8525193333625793,1.5114325284957886,11
7.955333709716797,-9.428665161132812,0.7688380479812622,-0.5081827044487,-1.0160325765609741,1.4166268110275269,11
7.9744873046875,-9.447818756103516,0.713771402835846,-0.6194995641708374,-1.0639680624008179,1.3042446374893188,11
7.75900936126709,-9.34965705871582,0.7832032442092896,-0.8784177899360657,-0.6969952583312988,1.0869371891021729,11
7.368454933166504,-9.21288776397705,0.9127894043922424,-0.8986572027206421,-0.6421357989311218,1.0746870040893555,11
6.884527206420898,-9.07641887664795,1.0923545360565186,-0.9796149134635925,-0.4093823730945587,1.0363385677337646,11
6.364686012268066,-8.96149730682373,1.346139907836914,-1.0419310331344604,-0.1787594109773636,1.0240883827209473,11
5.902605056762695,-8.777143478393555,1.6935983896255493,-1.0648335218429565,0.09234238415956497,1.0443278551101685,11
5.495291233062744,-8.561366081237793,1.9378069639205933,-1.0344743728637695,0.31604132056236267,1.092795968055725,11
5.166986465454102,-8.321946144104004,1.988384485244751,-0.9263532757759094,0.5424033403396606,1.2163629531860352,11
4.901230335235596,-8.070255279541016,1.8875287771224976,-0.7883390188217163,0.6052520871162415,1.4304747581481934,11
4.702212333679199,-7.818864345550537,1.6816273927688599,-0.7883390188217163,0.6052520871162415,1.4304747581481934,11
4.616020679473877,-7.636904716491699,1.4039000272750854,-0.7750235795974731,0.5914040803909302,1.4682905673980713,11
4.680664539337158,-7.536048889160156,1.104325532913208,-0.7617081999778748,0.5573166012763977,1.5369981527328491,11
4.9060187339782715,-7.526472091674805,0.8744821548461914,-0.7680996060371399,0.49659833312034607,1.6046403646469116,11
5.188534259796143,-7.581838130950928,0.7257423996925354,-0.7936651706695557,0.40392303466796875,1.6525758504867554,11
5.459378242492676,-7.663240909576416,0.651522159576416,-0.8176329135894775,0.35066139698028564,1.6728153228759766,11
5.729923248291016,-7.71591329574585,0.6634931564331055,-0.8379389047622681,0.28621479868888855,1.685065507888794,11
5.914576053619385,-7.756615161895752,0.7329249978065491,-0.8555153012275696,0.175430566072464,1.6818697452545166,11
6.036680221557617,-7.83801794052124,0.8262988328933716,-0.8651023507118225,0.05505923181772232,1.6840002536773682,11
6.1611785888671875,-7.9409685134887695,0.9103952050209045,-0.8672328591346741,-0.0019307348411530256,1.6893264055252075,11
6.33834981918335,-7.988852500915527,1.0181342363357544,-0.8672328591346741,-0.0019307348411530256,1.6893264055252075,11
6.5948286056518555,-8.077438354492188,1.1761516332626343,-0.8432651162147522,-0.3912734091281891,1.7042397260665894,11
6.889315605163574,-8.125322341918945,1.3509283065795898,-0.8085784316062927,-0.5649063587188721,1.687195897102356,11
7.2032551765441895,-8.125322341918945,1.6289550065994263,-0.7553167939186096,-0.7507895231246948,1.654706358909607,11
7.680000305175781,-8.087015151977539,1.9593547582626343,-0.6716960072517395,-0.9127049446105957,1.5977163314819336,11
8.192659378051758,-7.998429298400879,2.3116016387939453,-0.522030770778656,-1.0527831315994263,1.478410243988037,11
8.592490196228027,-7.866748332977295,2.635118246078491,-0.18808020651340485,-1.1667630672454834,1.2089062929153442,11
8.722076416015625,-7.682394504547119,2.776376247406006,-0.18808020651340485,-1.1667630672454834,1.2089062929153442,11
8.587701797485352,-7.4426751136779785,2.7141268253326416,-0.05758916214108467,-1.1587737798690796,1.1130353212356567,11
8.333916664123535,-7.234379768371582,2.450465440750122,0.08515206724405289,-1.0655659437179565,1.0123708248138428,11
8.159140586853027,-7.090727806091309,2.0937294960021973,0.15226174890995026,-0.916965901851654,0.963370144367218,11
8.082226753234863,-7.0931220054626465,1.734299898147583,0.17143593728542328,-0.7673006653785706,0.94100022315979,11
8.101380348205566,-7.234379768371582,1.3652935028076172,-0.003794892691075802,-0.08874722570180893,0.8882712125778198,11
8.216601371765137,-7.375637531280518,1.106719732284546,-0.03202356770634651,0.0023301972541958094,0.8781514763832092,11
8.379406929016113,-7.507318496704102,0.9415197968482971,-0.03202356770634651,0.0023301972541958094,0.8781514763832092,11
8.61164379119873,-7.641693115234375,0.9271546006202698,-0.03202356770634651,0.0023301972541958094,0.8781514763832092,11
8.899248123168945,-7.668029308319092,1.0779893398284912,-0.06291532516479492,0.10619042068719864,0.8451292514801025,11
9.268254280090332,-7.672817707061768,1.2838906049728394,-0.06983934342861176,0.11311443150043488,0.7849435806274414,11
9.76864242553711,-7.864354133605957,1.3988122940063477,-0.06398055702447891,0.02416747435927391,0.6869421601295471,11
10.442011833190918,-8.472780227661133,1.3174095153808594,-0.06664364039897919,-0.09513862431049347,0.5836145281791687,11
10.990582466125488,-9.38317584991455,1.2192472219467163,-0.08262213319540024,-0.2400103211402893,0.4339492917060852,11
11.261127471923828,-10.06582260131836,1.30543851852417,-0.08794829994440079,-0.3662404417991638,0.2629793882369995,11
11.474211692810059,-10.482712745666504,1.5643115043640137,-0.06983934342861176,-0.4770246744155884,0.13994498550891876,11
11.555913925170898,-10.626364707946777,1.8947113752365112,-0.022969087585806847,-0.6101787686347961,0.008388710208237171,11
11.32577133178711,-10.288483619689941,2.273294448852539,0.05372769013047218,-0.6895386576652527,-0.1402112990617752,11
10.908881187438965,-9.47654914855957,2.7667994499206543,0.17569686472415924,-0.7763551473617554,-0.2882786989212036,11
10.386645317077637,-8.515875816345215,3.157353401184082,0.27156785130500793,-0.8194971084594727,-0.386346697807312,11
9.967659950256348,-7.770980358123779,3.468599796295166,0.5416043996810913,-0.9329444169998169,-0.647328794002533,11
9.574711799621582,-7.279869556427002,3.6314053535461426,0.7615750432014465,-0.9851408004760742,-0.8550492525100708,11
9.129091262817383,-6.898892402648926,3.677194595336914,0.8111083507537842,-0.993130087852478,-0.8960607051849365,11
8.676287651062012,-6.621164798736572,3.5404257774353027,0.8111083507537842,-0.993130087852478,-0.8960607051849365,11
8.367435455322266,-6.554127216339111,3.2411506175994873,1.4332044124603271,-1.1214905977249146,-1.473417043685913,11
8.166322708129883,-6.776787757873535,2.773982048034668,1.564294695854187,-1.177415370941162,-1.6337345838546753,11
7.964910507202148,-7.239168167114258,2.184709072113037,1.6708179712295532,-1.2509164810180664,-1.8228133916854858,11
7.768586158752441,-7.780557155609131,1.5978304147720337,1.7107642889022827,-1.3174935579299927,-2.0273382663726807,11
7.528866291046143,-8.307580947875977,1.0995371341705322,1.686263918876648,-1.3559085130691528,-2.161024808883667,11
7.301417350769043,-8.822632789611816,0.6491279602050781,1.6148933172225952,-1.3809415102005005,-2.2579610347747803,11
7.0500264167785645,-9.31613826751709,0.32112228870391846,1.5073047876358032,-1.3974525928497314,-2.3138859272003174,11
6.8127007484436035,-9.76864242553711,0.08140286058187485,1.3623664379119873,-1.4033113718032837,-2.324538230895996,11
6.604405403137207,-10.106523513793945,-0.028730420395731926,1.2031141519546509,-1.4027787446975708,-2.3000378608703613,11
6.410175800323486,-10.202292442321777,-0.028730420395731926,1.0651664733886719,-1.401713490486145,-2.263287305831909,11
6.285677433013916,-10.202292442321777,0.023942016065120697,0.849456787109375,-1.3979852199554443,-2.1967101097106934,11
6.283283233642578,-10.104129791259766,0.16998831927776337,0.6747585535049438,-1.3868002891540527,-2.1413180828094482,11
6.32637882232666,-10.005967140197754,0.37140053510665894,0.5096474289894104,-1.3559085130691528,-2.1019043922424316,11
6.398204803466797,-9.893440246582031,0.6395511031150818,0.38767823576927185,-1.3174935579299927,-2.082730293273926,11
6.395810604095459,-9.756670951843262,0.9295487999916077,0.2422739416360855,-1.2354705333709717,-2.07633900642395,11
6.350320816040039,-9.577106475830078,1.2000936269760132,0.14214202761650085,-1.1486541032791138,-2.0795345306396484,11
6.273706436157227,-9.40711784362793,1.4302362203598022,0.06704310327768326,-1.0442612171173096,-2.100306749343872,11
6.175543785095215,-9.280224800109863,1.6169840097427368,0.018575001507997513,-0.9515859484672546,-2.1157524585723877,11
6.015132427215576,-9.210494041442871,1.7965490818023682,-0.0005991935613565147,-0.9047157168388367,-2.1311984062194824,11
5.811326026916504,-9.119514465332031,1.9955670833587646,-0.011251524090766907,-0.8807479739189148,-2.1343941688537598,11
5.5096564292907715,-9.011775016784668,2.1272482872009277,-0.02456693723797798,-0.6048526167869568,-2.198307991027832,11
5.095160484313965,-8.9064302444458,2.273294448852539,0.0057922047562897205,-0.5095142722129822,-2.1865904331207275,11
4.757278919219971,-8.856152534484863,2.390610456466675,0.05958647280931473,-0.4312196373939514,-2.1434485912323,11
4.462791919708252,-8.81784439086914,2.472013235092163,0.14267465472221375,-0.35505548119544983,-2.063023567199707,11
4.2329487800598145,-8.760383605957031,2.474407434463501,0.22416497766971588,-0.3065873682498932,-1.9794026613235474,11
4.0435075759887695,-8.734047889709473,2.431311845779419,0.29979652166366577,-0.2703694701194763,-1.8856621980667114,11
3.9070379734039307,-8.736441612243652,2.321178436279297,0.3605147898197174,-0.24586910009384155,-1.80363929271698,11
3.7562031745910645,-8.741230010986328,2.165555477142334,0.44200512766838074,-0.210183784365654,-1.6710177659988403,11
3.60028076171875,-8.678682327270508,2.036268472671509,0.44946175813674927,-0.20752070844173431,-1.6433216333389282,11
3.444657802581787,-8.573336601257324,1.875557780265808,0.5394739508628845,-0.17343325912952423,-1.4254815578460693,11
3.3057940006256104,-8.475174903869629,1.6888099908828735,0.5682352185249329,-0.1547916680574417,-1.2901968955993652,11
3.1908724308013916,-8.386589050292969,1.4876971244812012,0.5842137336730957,-0.13987840712070465,-1.1549123525619507,11
3.1717185974121094,-8.314763069152832,1.3102269172668457,0.5847463607788086,-0.12123683094978333,-1.0233560800552368,11
3.018190622329712,-8.101380348205566,1.1330559253692627,0.5719635486602783,-0.11005188524723053,-0.8848757743835449,11
2.8984804153442383,-7.924209117889404,1.0181342363357544,0.5458653569221497,-0.11005188524723053,-0.7400040626525879,11
2.8889036178588867,-7.830835342407227,0.9367313981056213,0.5187019109725952,-0.12123683094978333,-0.5993933081626892,11
2.946364402770996,-7.905055522918701,0.8481459617614746,0.49526676535606384,-0.14200887084007263,-0.4806198179721832,11
3.116652011871338,-8.125322341918945,0.773626446723938,0.4649076461791992,-0.16331353783607483,-0.33994248509407043,11
3.353677988052368,-8.391377449035645,0.7018003463745117,0.4329506456851959,-0.20166192948818207,-0.18015754222869873,11
3.5930981636047363,-8.645163536071777,0.634762704372406,0.4036567509174347,-0.24906480312347412,-0.05179695412516594,11
3.8232407569885254,-8.834604263305664,0.5437830686569214,0.37809115648269653,-0.29806551337242126,0.041410934180021286,11
4.005200386047363,-9.002198219299316,0.44083237648010254,0.3493298590183258,-0.34280529618263245,0.11331415921449661,11
4.182371139526367,-9.126696586608887,0.34267011284828186,0.3493298590183258,-0.34280529618263245,0.11331415921449661,11
4.352658748626709,-9.133879661560059,0.26096799969673157,0.3392101526260376,-0.3555881083011627,0.1362166702747345,11
4.4508209228515625,-9.042900085449219,0.2322375625371933,0.09740224480628967,-0.4445350468158722,0.46004751324653625,11
4.491522312164307,-8.868123054504395,0.23942017555236816,0.0025965054519474506,-0.3923386335372925,0.5324833393096924,11
4.671087741851807,-8.743624687194824,0.26336219906806946,-0.12310098856687546,-0.32203325629234314,0.5974625945091248,11
5.1023430824279785,-8.983044624328613,0.2561795711517334,-0.24027661979198456,-0.2719672918319702,0.6161041259765625,11
5.478531837463379,-9.550769805908203,0.14844051003456116,-0.372898131608963,-0.18142250180244446,0.6054518222808838,11
5.641337871551514,-10.147225379943848,0.07661445438861847,-0.48741069436073303,-0.06797518581151962,0.6059844493865967,11
5.636549472808838,-10.57608699798584,0.06464344263076782,-0.6370759010314941,0.1003316342830658,0.6246260404586792,11
5.545569896697998,-10.887332916259766,0.08140286058187485,-0.7286859750747681,0.20312662422657013,0.6485937833786011,11
5.178957462310791,-10.952275276184082,0.19153612852096558,-1.0003869533538818,0.5248270034790039,0.7955959439277649,11
4.496310710906982,-10.540173530578613,0.4767454266548157,-1.100518822669983,0.6755574941635132,0.9202281832695007,11
3.739443778991699,-9.742305755615234,1.0229226350784302,-1.1734873056411743,0.8326793313026428,1.1316769123077393,11
3.1884782314300537,-8.868123054504395,1.7510592937469482,-1.1713569164276123,0.938137412071228,1.3814741373062134,11
2.9343934059143066,-8.024765968322754,2.45285964012146,-1.1085081100463867,0.9732900857925415,1.5785422325134277,11
3.0541036128997803,-7.437886714935303,3.0325558185577393,-0.9673647284507751,0.9674313068389893,1.801708459854126,11
3.5667619705200195,-7.160159587860107,3.4350810050964355,-0.7047182321548462,0.9423983693122864,1.9961800575256348,11
4.240131378173828,-7.291840553283691,3.5715503692626953,-0.44320350885391235,0.9029847383499146,2.092583656311035,11
4.94193172454834,-7.687182903289795,3.423109769821167,-0.161981999874115,0.8534513711929321,2.1378560066223145,11
5.5359930992126465,-8.09898567199707,3.1046810150146484,0.11338073760271072,0.7831460237503052,2.145312786102295,11
5.97682523727417,-8.532635688781738,2.6758196353912354,0.37755852937698364,0.6947316527366638,2.1559650897979736,11
6.3622918128967285,-8.975862503051758,2.2254104614257812,0.6081814765930176,0.5642406344413757,2.1666173934936523,11
6.795941352844238,-9.395146369934082,1.6409260034561157,0.781814455986023,0.4103144407272339,2.163421630859375,11
7.229591369628906,-9.687239646911621,0.9726444482803345,0.8856746554374695,0.24200762808322906,2.1282689571380615,11
7.476193904876709,-9.718363761901855,0.26575639843940735,0.8931313157081604,0.09820117056369781,2.0483765602111816,11
7.5866265296936035,-9.514857292175293,-0.4504092037677765,0.8057821989059448,0.0023301972541958094,1.9407213926315308,11
7.581838130950928,-9.184157371520996,-1.0923545360565186,0.6193664073944092,-0.008854749612510204,1.806502103805542,11
7.45225191116333,-8.765172004699707,-1.63613760471344,0.4143090546131134,0.06517894566059113,1.6903916597366333,11
7.181707382202148,-8.23575496673584,-2.031480073928833,0.10272841155529022,0.27343201637268066,1.5417916774749756,11
6.891709804534912,-8.041524887084961,-2.1942858695983887,-0.25039634108543396,0.5802190899848938,1.3963873386383057,11
6.443694591522217,-7.8332295417785645,-2.2182278633117676,-0.7153705358505249,1.0021179914474487,1.2690919637680054,11
5.97682523727417,-7.7446441650390625,-1.901893973350525,-1.0025174617767334,1.307307243347168,1.2222217321395874,11
5.581482887268066,-7.725490570068359,-1.3557167053222656,-1.3646966218948364,1.7094327211380005,1.1998518705368042,11
5.361216068267822,-7.790133953094482,-0.6682815551757812,-1.5527102947235107,1.9080986976623535,1.203047513961792,11
5.222053050994873,-7.84998893737793,0.040701430290937424,-1.7348651885986328,2.082796812057495,1.2254174947738647,11
5.1454386711120605,-7.828441143035889,0.7616553902626038,-1.804105281829834,2.1083624362945557,1.2536461353302002,11
5.090372085571289,-7.8092875480651855,1.4302362203598022,-1.7913224697113037,2.049774646759033,1.2925270795822144,11
5.15740966796875,-7.840412139892578,1.9788076877593994,-1.4483174085617065,1.6050398349761963,1.3825392723083496,11
5.325003623962402,-7.909843921661377,2.4001872539520264,-1.4483174085617065,1.6050398349761963,1.3825392723083496,11
5.490502834320068,-7.9744873046875,2.6997616291046143,-1.4483174085617065,1.6050398349761963,1.3825392723083496,11
5.658097267150879,-7.960122108459473,2.8338370323181152,-1.2278141975402832,1.3318076133728027,1.4043766260147095,11
5.806537628173828,-7.945756912231445,2.836231231689453,-1.077083706855774,1.1427286863327026,1.415561556816101,11
5.912181854248047,-7.926603317260742,2.7835588455200195,-0.8517869710922241,0.8704951405525208,1.4299421310424805,11
6.130053997039795,-7.945756912231445,2.6303298473358154,-0.6727612018585205,0.6414700150489807,1.4336705207824707,11
6.290465831756592,-8.003217697143555,2.383427858352661,-0.5497268438339233,0.4726305902004242,1.43899667263031,11
6.470330238342285,-8.091803550720215,2.165555477142334,-0.41231176257133484,0.27343201637268066,1.4443228244781494,11
6.611588001251221,-8.103774070739746,1.9330185651779175,-0.2988644540309906,0.08062482625246048,1.4432575702667236,11
6.752845764160156,-8.051101684570312,1.7055693864822388,-0.2141784131526947,-0.0914103090763092,1.4400619268417358,11
6.946776390075684,-7.964910507202148,1.5475521087646484,-0.14813396334648132,-0.22722752392292023,1.4240833520889282,11
7.117063999176025,-7.785345554351807,1.346139907836914,-0.10872034728527069,-0.33108773827552795,1.3979852199554443,11
7.351695537567139,-7.6297221183776855,1.2000936269760132,-0.08794829994440079,-0.3779579997062683,1.3447235822677612,11
7.632116317749023,-7.5312604904174805,1.1019313335418701,-0.08421998471021652,-0.37263181805610657,1.2616353034973145,11
7.909843921661377,-7.435492515563965,1.0348936319351196,-0.09274184703826904,-0.34174007177352905,1.1737536191940308,11
8.09898567199707,-7.368454933166504,1.0636241436004639,-0.10872034728527069,-0.23361891508102417,0.9841421842575073,11
8.17829418182373,-7.229591369628906,0.9846154451370239,-0.1406773328781128,-0.13188916444778442,0.84193354845047,11
8.276455879211426,-7.251139163970947,0.9534908533096313,-0.161981999874115,0.01511299330741167,0.6943987607955933,11
8.388983726501465,-7.394791126251221,0.9391255974769592,-0.18541713058948517,0.15039758384227753,0.5447335243225098,11
8.499116897583008,-7.61296272277832,0.8936358094215393,-0.20831963419914246,0.24094238877296448,0.42702528834342957,11
8.604461669921875,-7.936180114746094,0.83348149061203,-0.22909167408943176,0.32722628116607666,0.285881906747818,11
8.594884872436523,-8.245331764221191,0.8529343605041504,-0.2472006380558014,0.390607625246048,0.1367492824792862,11
8.518270492553711,-8.470386505126953,0.8864531517028809,-0.2546572685241699,0.3954011797904968,0.05312849581241608,11
8.463203430175781,-8.602066993713379,0.982221245765686,-0.2578529715538025,0.3533244729042053,-0.02623136341571808,11
8.705317497253418,-8.89685344696045,1.0348936319351196,-0.2679726779460907,0.20099616050720215,-0.1306242048740387,11
9.289801597595215,-9.598653793334961,1.0372878313064575,-0.2775597870349884,0.06677679717540741,-0.22436471283435822,11
9.720758438110352,-10.422858238220215,1.0468647480010986,-0.28874471783638,-0.10419310629367828,-0.46677178144454956,11
9.771036148071289,-10.889727592468262,1.1857284307479858,-0.28554901480674744,-0.12603038549423218,-0.5157725214958191,11
9.648932456970215,-10.983400344848633,1.458966612815857,-0.2663748264312744,-0.186748668551445,-0.6175022721290588,11
9.387964248657227,-10.822689056396484,1.8372504711151123,-0.21790672838687897,-0.27889132499694824,-0.7075144648551941,11
9.035717010498047,-10.506654739379883,2.2445640563964844,-0.159851536154747,-0.35345762968063354,-0.7708958387374878,11
8.652345657348633,-10.025120735168457,2.7117326259613037,-0.010186290368437767,-0.4764920473098755,-0.8630384802818298,11
8.274062156677246,-9.462183952331543,3.229179620742798,0.43241801857948303,-0.7129737734794617,-1.029214859008789,11
7.88350772857666,-8.769960403442383,3.6891655921936035,0.43241801857948303,-0.7129737734794617,-1.029214859008789,11
7.521683692932129,-8.079832077026367,3.9740755558013916,0.7269549369812012,-0.8770196437835693,-1.1282814741134644,11
7.31578254699707,-7.600991725921631,3.9764697551727295,1.0348073244094849,-1.0660985708236694,-1.2406635284423828,11
7.301417350769043,-7.469011306762695,3.573944568634033,1.3037786483764648,-1.2615687847137451,-1.3775460720062256,11
7.411550521850586,-7.739855766296387,2.9104514122009277,1.4662266969680786,-1.4118331670761108,-1.5149611234664917,11
7.536048889160156,-8.211812973022461,2.2206220626831055,1.6138280630111694,-1.6046403646469116,-1.744518756866455,11
7.536048889160156,-8.685864448547363,1.6409260034561157,1.6532416343688965,-1.7734798192977905,-2.0710127353668213,11
7.3780317306518555,-9.169792175292969,1.1306617259979248,1.6532416343688965,-1.7734798192977905,-2.0710127353668213,11
7.090727806091309,-9.696816444396973,0.7305307984352112,1.5855993032455444,-1.8070346117019653,-2.2148191928863525,11
6.745663166046143,-10.238204956054688,0.39055415987968445,1.5024446249008179,-1.8038389682769775,-2.254765510559082,11
6.355109214782715,-10.549750328063965,0.19153612852096558,1.3751492500305176,-1.777740716934204,-2.2568957805633545,11
6.0725932121276855,-10.619182586669922,0.06703764945268631,1.2286796569824219,-1.7377945184707642,-2.2062973976135254,11
5.828085422515869,-10.468347549438477,0.028730420395731926,1.0747535228729248,-1.6792067289352417,-2.1296005249023438,11
5.6892218589782715,-10.144830703735352,0.090979665517807,0.9218925833702087,-1.6222167015075684,-2.034794807434082,11
5.7754130363464355,-9.80455493927002,0.19393034279346466,0.7658359408378601,-1.586531400680542,-1.9469131231307983,11
6.02231502532959,-9.519645690917969,0.3594295382499695,0.5911377668380737,-1.5519113540649414,-1.8909883499145508,11
6.328773021697998,-9.287407875061035,0.5701192617416382,0.46011409163475037,-1.5055737495422363,-1.8931188583374023,11
6.613982200622559,-9.100360870361328,0.795174241065979,0.3477320075035095,-1.4443228244781494,-1.9378585815429688,11
6.736086368560791,-9.016563415527344,0.9726444482803345,0.2678395211696625,-1.3777457475662231,-1.9889898300170898,11
6.721721172332764,-8.904036521911621,1.0851719379425049,0.15439221262931824,-1.25517737865448,-2.080599784851074,11
6.611588001251221,-8.815450668334961,1.18094003200531,0.06864095479249954,-1.1395995616912842,-2.161024808883667,11
6.424540996551514,-8.822632789611816,1.2599486112594604,-0.010186290368437767,-1.0139020681381226,-2.2329280376434326,11
6.142024993896484,-8.834604263305664,1.3293805122375488,-0.1507970541715622,-0.6602447628974915,-2.3234729766845703,11
5.806537628173828,-8.884882926940918,1.4182652235031128,-0.1507970541715622,-0.6602447628974915,-2.3234729766845703,11
5.497685432434082,-8.968679428100586,1.5020623207092285,-0.1721017062664032,-0.5563845038414001,-2.320277214050293,11
5.29387903213501,-9.002198219299316,1.6050130128860474,-0.18967805802822113,-0.43920889496803284,-2.3138859272003174,11
5.076006889343262,-9.009381294250488,1.6912041902542114,-0.19660207629203796,-0.2709020674228668,-2.2856571674346924,11
4.819827079772949,-8.973467826843262,1.7319056987762451,-0.18967805802822113,-0.1659766137599945,-2.2489066123962402,11
4.54419469833374,-8.937555313110352,1.7510592937469482,-0.17316694557666779,-0.04187697172164917,-2.188188314437866,11
4.3191399574279785,-8.860940933227539,1.7390882968902588,-0.1513296663761139,0.07103772461414337,-2.1125569343566895,11
4.120121955871582,-8.769960403442383,1.7103577852249146,-0.12363360822200775,0.18075673282146454,-2.0225446224212646,11
3.9333741664886475,-8.652345657348633,1.7295114994049072,-0.08475260436534882,0.283019095659256,-1.9005753993988037,11
3.7777509689331055,-8.561366081237793,1.633743405342102,-0.06185009330511093,0.34373739361763,-1.8148242235183716,11
3.6314053535461426,-8.45362663269043,1.5762825012207031,-0.034686651080846786,0.40339043736457825,-1.7019095420837402,11
3.494935989379883,-8.36264705657959,1.4781203269958496,-0.018175538629293442,0.47742411494255066,-1.558103084564209,11
3.3417069911956787,-8.230966567993164,1.3628993034362793,-0.013914606533944607,0.5317510366439819,-1.4579710960388184,11
3.2172086238861084,-8.00561237335205,1.3126211166381836,-0.012316756881773472,0.6414700150489807,-1.2204241752624512,11
3.1693243980407715,-7.8332295417785645,1.2575544118881226,-0.013914606533944607,0.6617094278335571,-1.1687602996826172,11
3.1932666301727295,-7.71591329574585,1.204882025718689,-0.018175538629293442,0.7048513889312744,-1.0542478561401367,11
3.229179620742798,-7.6297221183776855,1.1426327228546143,-0.018708154559135437,0.7245581746101379,-0.9700943827629089,11
3.3488895893096924,-7.603385925292969,1.0732009410858154,-0.025099553167819977,0.7368083596229553,-0.877419114112854,11
3.530848979949951,-7.680000305175781,0.943913996219635,-0.0336214154958725,0.7565152049064636,-0.7858090996742249,11
3.7801451683044434,-7.88350772857666,0.8358756899833679,-0.04587159678339958,0.8028528094291687,-0.5924692749977112,11
4.007594585418701,-8.106168746948242,0.7401075959205627,-0.04693682864308357,0.7964614033699036,-0.5759581923484802,11
4.24970817565918,-8.388983726501465,0.5892729163169861,-0.04959991201758385,0.7900699973106384,-0.5551861524581909,11
4.4077253341674805,-8.832210540771484,0.4097077548503876,-0.06717626005411148,0.7538520693778992,-0.44706499576568604,11
4.431667327880859,-9.299378395080566,0.29957449436187744,-0.09327446669340134,0.6984599828720093,-0.29573532938957214,11
4.211400985717773,-9.493309020996094,0.24660277366638184,-0.1278945356607437,0.6750248670578003,-0.10452599078416824,11
3.899855375289917,-9.220070838928223,0.2561795711517334,-0.16464507579803467,0.6414700150489807,0.11224892735481262,11
3.7801451683044434,-8.697835922241211,0.3043628931045532,-0.19660207629203796,0.5759581923484802,0.28854498267173767,11
3.990834951400757,-8.597278594970703,0.24899697303771973,-0.2642443776130676,0.4278907775878906,0.5287550687789917,11
4.443638324737549,-9.057265281677246,0.016759412363171577,-0.3627784252166748,0.34054169058799744,0.6975944638252258,11
4.8126444816589355,-9.584288597106934,-0.24181437492370605,-0.4384099543094635,0.31923702359199524,0.7849435806274414,11
5.068824291229248,-9.8599214553833,-0.38576576113700867,-0.4384099543094635,0.31923702359199524,0.7849435806274414,11
5.272331237792969,-10.07779312133789,-0.41689038276672363,-0.4932694733142853,0.3245631754398346,0.8360747694969177,11
5.272331237792969,-10.163984298706055,-0.31872808933258057,-0.9210271239280701,0.5147072672843933,1.20091712474823,11
4.980238914489746,-9.843161582946777,0.035913024097681046,-1.0579094886779785,0.5898061990737915,1.3463213443756104,11
4.491522312164307,-9.119514465332031,0.6395511031150818,-1.144193410873413,0.6686334609985352,1.5646941661834717,11
4.0770263671875,-8.331522941589355,1.2886791229248047,-1.1362041234970093,0.7085797190666199,1.7793385982513428,11
3.9764697551727295,-7.5791449546813965,1.921047568321228,-0.9236901998519897,0.6297524571418762,2.1522367000579834,11
4.12251615524292,-7.009025573730469,2.45285964012146,-0.9236901998519897,0.6297524571418762,2.1522367000579834,11
4.5154643058776855,-6.704961776733398,2.7883472442626953,-0.730283796787262,0.5551861524581909,2.2726080417633057,11
5.155015468597412,-6.692990779876709,2.86256742477417,-0.6035211086273193,0.5115115642547607,2.3109564781188965,11
5.854421615600586,-6.937199592590332,2.769193649291992,-0.6035211086273193,0.5115115642547607,2.3109564781188965,11
6.501454830169678,-7.368454933166504,2.5369560718536377,-0.04800206422805786,0.2707689106464386,2.2742059230804443,11
6.9922661781311035,-7.878719329833984,2.206256866455078,0.1272287666797638,0.17809364199638367,2.2230746746063232,11
7.404367923736572,-8.482357025146484,1.755847692489624,0.3093836307525635,0.03375457227230072,2.1607584953308105,11
7.763797760009766,-9.014169692993164,1.2623428106307983,0.467038094997406,-0.17396587133407593,2.093116283416748,11
7.9744873046875,-9.455001831054688,0.7377133965492249,0.5346804261207581,-0.3262941837310791,2.041985034942627,11
8.1325044631958,-9.644144058227539,0.19393034279346466,0.5384086966514587,-0.41737160086631775,1.9972453117370605,11
8.26927375793457,-9.675268173217773,-0.3115454912185669,0.4792882800102234,-0.495133638381958,1.9348626136779785,11
8.314763069152832,-9.5531644821167,-0.773626446723938,0.30086174607276917,-0.5084490180015564,1.8326002359390259,11
8.314763069152832,-9.342473983764648,-1.14742112159729,0.17250117659568787,-0.47276371717453003,1.768686294555664,11
8.209418296813965,-9.066842079162598,-1.3533225059509277,-0.07942643761634827,-0.32096803188323975,1.6483149528503418,11
7.969698905944824,-8.774748802185059,-1.413476824760437,-0.42243146896362305,0.006591129116714001,1.5013128519058228,11
7.603385925292969,-8.482357025146484,-1.2838906049728394,-0.7808823585510254,0.43588003516197205,1.3670934438705444,11
7.162553787231445,-8.252513885498047,-0.9080010056495667,-1.0472571849822998,0.822559654712677,1.2765486240386963,11
6.724115371704102,-8.06307315826416,-0.38815996050834656,-1.2650973796844482,1.169359564781189,1.2051780223846436,11
6.314407825469971,-7.902661323547363,0.19871874153614044,-1.411034345626831,1.468157410621643,1.1540467739105225,11
5.991190433502197,-7.778162956237793,0.7305307984352112,-1.4781439304351807,1.882533073425293,1.102915644645691,11
5.696404457092285,-7.720701694488525,1.2575544118881226,-1.4781439304351807,1.882533073425293,1.102915644645691,11
5.459378242492676,-7.646481513977051,1.63613760471344,-1.4472522735595703,1.9240771532058716,1.0975894927978516,11
5.214870452880859,-7.545626163482666,1.875557780265808,-1.3401962518692017,1.9107617139816284,1.1066439151763916,11
4.999392509460449,-7.416338920593262,1.9907786846160889,-1.2235532999038696,1.8058363199234009,1.1364704370498657,11
4.934749126434326,-7.366060733795166,1.9716250896453857,-1.1271497011184692,1.6817365884780884,1.1641665697097778,11
5.040093898773193,-7.390002727508545,1.9042881727218628,-0.9838758707046509,1.4495158195495605,1.2078410387039185,11
5.219658851623535,-7.459434509277344,1.798943281173706,-0.8741568326950073,1.2306104898452759,1.233939290046692,11
5.3995232582092285,-7.495347499847412,1.655291199684143,-0.7851433157920837,1.0117050409317017,1.2456568479537964,11
5.591059684753418,-7.4857707023620605,1.5092449188232422,-0.7116422653198242,0.7964614033699036,1.254178762435913,11
5.796960830688477,-7.49774169921875,1.3724761009216309,-0.6573153734207153,0.5977954864501953,1.2493852376937866,11
6.019920825958252,-7.536048889160156,1.2958617210388184,-0.6205648183822632,0.41297751665115356,1.2254174947738647,11
6.244976043701172,-7.571962356567383,1.2575544118881226,-0.592336118221283,0.23614884912967682,1.1849385499954224,11
6.379051208496094,-7.559991359710693,1.1953052282333374,-0.5726293325424194,0.10139686614274979,1.1380683183670044,11
