AccX,AccY,AccZ,GyroX,GyroY,GyroZ,Label
4.086603164672852,-7.095516204833984,1.202487826347351,0.07876066863536835,-0.8599759340286255,0.9095758199691772,11
4.266467571258545,-7.366060733795166,0.5701192617416382,-0.10232894867658615,-0.718299925327301,0.9910661578178406,11
4.469974517822266,-7.639298915863037,0.1173158809542656,-0.31750601530075073,-0.6234942078590393,1.0459256172180176,11
4.692635536193848,-7.9409685134887695,-0.23942017555236816,-0.5103132128715515,-0.5681020617485046,1.079480528831482,11
4.989815711975098,-8.321946144104004,-0.44322657585144043,-1.0627031326293945,-0.483948677778244,1.116763710975647,11
5.32739782333374,-8.789113998413086,-0.48153382539749146,-1.0627031326293945,-0.483948677778244,1.116763710975647,11
5.6676740646362305,-9.277831077575684,-0.37140053510665894,-1.2528471946716309,-0.47169849276542664,1.1103723049163818,11
5.9193644523620605,-9.711181640625,-0.19153612852096558,-1.4983834028244019,-0.434415340423584,1.0965242385864258,11
6.0079498291015625,-10.061034202575684,0.016759412363171577,-1.6347332000732422,-0.40565404295921326,1.0938611030578613,11
5.9864020347595215,-10.173561096191406,0.3378817141056061,-1.7609633207321167,-0.3822189271450043,1.1002525091171265,11
5.887940406799316,-10.111311912536621,0.7975684404373169,-1.8302035331726074,-0.36517518758773804,1.133274793624878,11
5.72513484954834,-9.914987564086914,1.2958617210388184,-1.8302035331726074,-0.36517518758773804,1.133274793624878,11
5.564723491668701,-9.718363761901855,1.6744447946548462,-1.813692331314087,-0.3689035177230835,1.1918625831604004,11
5.4881086349487305,-9.493309020996094,1.875557780265808,-1.6373963356018066,-0.3044569194316864,1.3580389022827148,11
5.478531837463379,-9.311349868774414,1.9162591695785522,-1.5399274826049805,-0.24373863637447357,1.418224573135376,11
5.452195644378662,-9.100360870361328,1.8516157865524292,-1.3945231437683105,-0.1244325339794159,1.4991823434829712,11
5.3564276695251465,-8.846575736999512,1.700780987739563,-1.2832063436508179,-0.024300629273056984,1.5572375059127808,11
5.301061630249023,-8.642768859863281,1.533186912536621,-1.188933253288269,0.05825493112206459,1.6264777183532715,11
5.286696434020996,-8.549394607543945,1.389235496520996,-1.1170300245285034,0.11151657998561859,1.6792067289352417,11
5.373187065124512,-8.525452613830566,1.3078327178955078,-1.014235019683838,0.15891945362091064,1.7612296342849731,11
5.5359930992126465,-8.592490196228027,1.27191960811615,-0.9274185299873352,0.1748979538679123,1.8272740840911865,11
5.715558052062988,-8.647557258605957,1.1929110288619995,-0.8416672348976135,0.1951373815536499,1.8842641115188599,11
5.8978166580200195,-8.695441246032715,1.058835744857788,-0.7771540880203247,0.20152877271175385,1.9284712076187134,11
6.108506202697754,-8.772355079650879,0.8239046335220337,-0.72176194190979,0.2169746458530426,1.9775385856628418,11
6.407781600952148,-8.779537200927734,0.5725134611129761,-0.6967290043830872,0.23401838541030884,2.000441074371338,11
6.771999359130859,-8.676287651062012,0.4025251567363739,-0.7041856050491333,0.2388119250535965,1.969549298286438,11
7.052420616149902,-8.642768859863281,0.3306991159915924,-0.7180336117744446,0.23295314610004425,1.9316669702529907,11
7.303811550140381,-8.645163536071777,0.2852092683315277,-0.7569146156311035,0.2068549394607544,1.8326002359390259,11
7.4857707023620605,-8.626008987426758,0.2346317619085312,-0.8032522797584534,0.17276747524738312,1.7372618913650513,11
7.555202960968018,-8.66671085357666,0.2082955539226532,-0.8139045834541321,0.16797393560409546,1.7191529273986816,11
7.596203327178955,-8.676287651062012,0.24420857429504395,-0.9039833545684814,0.14933235943317413,1.5529766082763672,11
7.559991359710693,-8.652345657348633,0.29718029499053955,-0.9748213887214661,0.16903916001319885,1.4240833520889282,11
7.461828708648682,-8.585308074951172,0.4264671802520752,-1.0200937986373901,0.20152877271175385,1.338332176208496,11
7.23677396774292,-8.400954246520996,0.6203975081443787,-1.074420690536499,0.2686384618282318,1.2275478839874268,11
6.93959379196167,-8.20223617553711,0.8553285598754883,-1.0802794694900513,0.2824864685535431,1.2126346826553345,11
6.6355299949646,-8.00561237335205,1.1115081310272217,-1.1122363805770874,0.40339043736457825,1.1172963380813599,11
6.359897613525391,-7.761403560638428,1.3940238952636719,-1.1021167039871216,0.4832828938961029,1.0816110372543335,11
6.1611785888671875,-7.526472091674805,1.612195611000061,-1.070159673690796,0.5525230765342712,1.0517845153808594,11
6.060622215270996,-7.3325419425964355,1.779789686203003,-1.0259525775909424,0.616969645023346,1.025686264038086,11
6.079775810241699,-7.258321762084961,1.8971055746078491,-0.9689626097679138,0.6547853946685791,0.9974575638771057,11
6.15878438949585,-7.27029275894165,1.942595362663269,-0.8406019806861877,0.7043187618255615,0.9282174110412598,11
6.393416404724121,-7.4211273193359375,1.921047568321228,-0.8278192281723022,0.7037861347198486,0.9196955561637878,11
6.678625583648682,-7.691971302032471,1.8444331884384155,-0.7707626819610596,0.7048513889312744,0.8669665455818176,11
6.934805393218994,-7.993640899658203,1.7247231006622314,-0.7222945690155029,0.6936664581298828,0.8057156205177307,11
7.102698802947998,-8.242937088012695,1.5906476974487305,-0.6924680471420288,0.6878076195716858,0.757780134677887,11
7.205649375915527,-8.381800651550293,1.4853029251098633,-0.6700981259346008,0.66224205493927,0.6981270909309387,11
7.260715961456299,-8.470386505126953,1.4422072172164917,-0.6578479409217834,0.6281545758247375,0.6453980803489685,11
7.3325419425964355,-8.479963302612305,1.4493898153305054,-0.6578479409217834,0.5876757502555847,0.589473307132721,11
7.5312604904174805,-8.491933822631836,1.4733319282531738,-0.6589131951332092,0.5264248251914978,0.5175700783729553,11
7.847594738006592,-8.762778282165527,1.4493898153305054,-0.6775547862052917,0.4076513648033142,0.4041227698326111,11
8.262090682983398,-9.366415977478027,1.3988122940063477,-0.7121748328208923,0.2926062047481537,0.2938711643218994,11
8.547000885009766,-10.154407501220703,1.4493898153305054,-0.7377404570579529,0.22496390342712402,0.20492419600486755,11
8.568548202514648,-10.623970985412598,1.6481086015701294,-0.7483927607536316,0.18128934502601624,0.14207544922828674,11
8.324339866638184,-10.798747062683105,2.031480073928833,-0.730283796787262,0.09127715229988098,0.05632419511675835,11
7.964910507202148,-10.717344284057617,2.4815900325775146,-0.6301519274711609,-0.04294220730662346,0.050998032093048096,11
7.632116317749023,-10.262146949768066,2.991854190826416,-0.5294873714447021,-0.15372644364833832,0.06378082931041718,11
7.334936141967773,-9.541193008422852,3.473388195037842,-0.35798487067222595,-0.32096803188323975,0.06963960826396942,11
7.107487201690674,-8.702624320983887,3.926191568374634,-0.18701496720314026,-0.45785045623779297,0.05792204663157463,11
6.951564788818359,-7.909843921661377,4.323928356170654,0.13255493342876434,-0.648527204990387,-0.0038614696823060513,11
6.8557963371276855,-7.205649375915527,4.5825018882751465,0.13255493342876434,-0.648527204990387,-0.0038614696823060513,11
6.755239963531494,-6.6163763999938965,4.73573112487793,0.7248244881629944,-0.8354755640029907,-0.2153102308511734,11
6.602011203765869,-6.2306108474731445,4.620809078216553,1.08114492893219,-0.8860741257667542,-0.3762269914150238,11
6.436511993408203,-6.1611785888671875,4.199130535125732,1.4827377796173096,-0.9233573079109192,-0.5812843441963196,11
6.218639850616455,-6.407781600952148,3.420715570449829,1.740058183670044,-0.9563795328140259,-0.7373409867286682,11
6.079775810241699,-6.874950408935547,2.5345618724823,1.9046366214752197,-1.0075106620788574,-0.8747560381889343,11
5.974431037902832,-7.440280914306641,1.655291199684143,1.9834638833999634,-1.0783487558364868,-0.9882033467292786,11
5.912181854248047,-8.027159690856934,0.9032126069068909,1.9829312562942505,-1.194459080696106,-1.0675631761550903,11
5.847239017486572,-8.590096473693848,0.3354875147342682,1.9163541793823242,-1.348451852798462,-1.1085747480392456,11
5.9864020347595215,-9.150638580322266,0.040701430290937424,1.810363531112671,-1.554041862487793,-1.1208248138427734,11
6.249764442443848,-9.759065628051758,-0.11013327538967133,1.6836007833480835,-1.7985128164291382,-1.1282814741134644,11
6.606799602508545,-10.269330024719238,-0.05746084079146385,1.5440552234649658,-2.072810411453247,-1.1474556922912598,11
6.920440196990967,-10.540173530578613,0.14844051003456116,1.4348022937774658,-2.3055636882781982,-1.1788800954818726,11
7.162553787231445,-10.549750328063965,0.5701192617416382,1.326148509979248,-2.5947744846343994,-1.2454571723937988,11
7.375637531280518,-10.408493041992188,1.1641805171966553,1.2467886209487915,-2.9297902584075928,-1.3711546659469604,11
7.5312604904174805,-10.264541625976562,1.7247231006622314,1.2244187593460083,-3.1705329418182373,-1.5122979879379272,11
7.545626163482666,-10.185532569885254,2.1942858695983887,1.2302775382995605,-3.3095457553863525,-1.636930227279663,11
7.514501094818115,-10.18792724609375,2.5055320262908936,1.2601040601730347,-3.4070146083831787,-1.8025740385055542,11
7.445069313049316,-10.250176429748535,2.6566660404205322,1.295789361000061,-3.3990254402160645,-2.0092291831970215,11
7.2894463539123535,-10.286088943481445,2.6494834423065186,1.3149635791778564,-3.283980369567871,-2.1764707565307617,11
6.997054576873779,-10.28130054473877,2.527379274368286,1.3138983249664307,-3.1183364391326904,-2.300570487976074,11
6.611588001251221,-10.211869239807129,2.3259668350219727,1.2979198694229126,-2.8280606269836426,-2.433192014694214,11
6.149207592010498,-10.1568021774292,2.098517894744873,1.2622345685958862,-2.488783836364746,-2.52693247795105,11
5.698798656463623,-10.082581520080566,1.8707693815231323,1.1903313398361206,-2.040853261947632,-2.5844550132751465,11
5.317821025848389,-9.948506355285645,1.633743405342102,1.1328086853027344,-1.7367292642593384,-2.596172571182251,11
4.999392509460449,-9.847949981689453,1.4012064933776855,1.05025315284729,-1.3734848499298096,-2.586585521697998,11
4.675876140594482,-9.715970039367676,1.183334231376648,0.9597083926200867,-1.0123043060302734,-2.549834966659546,11
4.446032524108887,-9.596260070800781,1.0205284357070923,0.8531850576400757,-0.6266899108886719,-2.4816601276397705,11
4.252102375030518,-9.490914344787598,0.9127894043922424,0.66676926612854,-0.08874722570180893,-2.2712764739990234,11
4.0770263671875,-9.390357971191406,0.8382698893547058,0.66676926612854,-0.08874722570180893,-2.2712764739990234,11
3.921403169631958,-9.304166793823242,0.8095394372940063,0.6449320316314697,-0.03548557683825493,-2.226004123687744,11
3.80648136138916,-9.21288776397705,0.8119336366653442,0.5874094367027283,0.07742912322282791,-2.0832629203796387,11
3.749020576477051,-9.124302864074707,0.8191162347793579,0.5517241358757019,0.12216891348361969,-1.9628915786743164,11
3.7107133865356445,-9.074024200439453,0.8119336366653442,0.5288216471672058,0.12483199685811996,-1.8622270822525024,11
3.6676177978515625,-9.023746490478516,0.8215104341506958,0.5016582012176514,0.0997990220785141,-1.7098987102508545,11
3.658041000366211,-8.942343711853027,0.8095394372940063,0.48408183455467224,0.053461384028196335,-1.5857990980148315,11
3.679588794708252,-8.87051773071289,0.8119336366653442,0.46437501907348633,-0.0173766128718853,-1.467025637626648,11
3.698742389678955,-8.813055992126465,0.795174241065979,0.4457334578037262,-0.1020626425743103,-1.3562413454055786,11
3.765779972076416,-8.808267593383789,0.7592611908912659,0.42762449383735657,-0.17130278050899506,-1.2720879316329956,11
3.830423355102539,-8.827422142028809,0.7544727921485901,0.39886319637298584,-0.2645106613636017,-1.169825553894043,11
3.8615481853485107,-8.820239067077637,0.7688380479812622,0.36637356877326965,-0.31883755326271057,-1.1016507148742676,11
3.85197114944458,-8.87291145324707,0.7425017952919006,0.30299222469329834,-0.32309848070144653,-0.9903338551521301,11
3.8184523582458496,-8.920795440673828,0.6826467514038086,0.30299222469329834,-0.32309848070144653,-0.9903338551521301,11
3.7155017852783203,-9.047688484191895,0.5796960592269897,0.2444044053554535,-0.27622824907302856,-0.914702296257019,11
3.6146459579467773,-9.251194953918457,0.4671685993671417,0.18262088298797607,-0.21391209959983826,-0.831614077091217,11
3.535637378692627,-9.500492095947266,0.3618237376213074,0.11018504202365875,-0.135084867477417,-0.739471435546875,11
3.423109769821167,-9.756670951843262,0.26575639843940735,0.03189041465520859,-0.045605290681123734,-0.6281545758247375,11
3.293823003768921,-9.879075050354004,0.16759411990642548,-0.05119776353240013,0.048135217279195786,-0.5024570822715759,11
3.116652011871338,-9.8599214553833,0.07422025501728058,-0.14120995998382568,0.1637129932641983,-0.3553883731365204,11
2.77158784866333,-9.591471672058105,0.1173158809542656,-0.22323289513587952,0.2702363133430481,-0.17855969071388245,11
2.639906644821167,-9.280224800109863,0.16998831927776337,-0.2988644540309906,0.3570528030395508,0.015312724746763706,11
2.8721442222595215,-9.340080261230469,0.08619125932455063,-0.39153972268104553,0.4001947343349457,0.1900109350681305,11
3.380014181137085,-9.888651847839355,-0.1604115068912506,-0.5145741105079651,0.45931515097618103,0.32476291060447693,11
3.849576950073242,-10.444405555725098,-0.39294835925102234,-0.6631741523742676,0.5716972351074219,0.41956865787506104,11
4.127304553985596,-10.746074676513672,-0.5342062711715698,-1.0573769807815552,0.8859409689903259,0.5702991485595703,11
4.163217544555664,-10.822689056396484,-0.574907660484314,-1.0957252979278564,0.9109739661216736,0.5841471552848816,11
3.923797369003296,-10.75804615020752,-0.4887164235115051,-1.1697590351104736,0.968496561050415,0.6155715584754944,11
3.5045127868652344,-10.580875396728516,-0.309151291847229,-1.568156123161316,1.260969638824463,0.9905335307121277,11
2.9798831939697266,-10.252570152282715,0.06464344263076782,-1.6011784076690674,1.2881330251693726,1.0741543769836426,11
2.472013235092163,-9.715970039367676,0.6299743056297302,-1.6011784076690674,1.2881330251693726,1.0741543769836426,11
2.031480073928833,-9.07641887664795,1.348534107208252,-1.6203526258468628,1.3094377517700195,1.3468539714813232,11
1.8276736736297607,-8.561366081237793,2.1272482872009277,-1.537796974182129,1.2476541996002197,1.5998468399047852,11
1.9593547582626343,-8.348281860351562,2.8529906272888184,-1.4009145498275757,1.1565767526626587,1.8027737140655518,11
2.5031378269195557,-8.475174903869629,3.4326868057250977,-1.0973231792449951,0.9525180459022522,2.0760726928710938,11
3.296217203140259,-8.746018409729004,3.832817554473877,-0.7649039030075073,0.7245581746101379,2.243314266204834,11
4.120121955871582,-8.937555313110352,3.986046552658081,-0.3835504651069641,0.47955459356307983,2.3477070331573486,11
4.94193172454834,-9.107542991638184,3.8926727771759033,-0.06238270923495293,0.2840843200683594,2.3801965713500977,11
5.717952251434326,-9.263166427612305,3.516483783721924,0.329090416431427,0.06358109414577484,2.364750623703003,11
6.3407440185546875,-9.433453559875488,2.8673558235168457,0.4041893482208252,0.020439159125089645,2.351435422897339,11
6.7911529541015625,-9.5531644821167,2.0266916751861572,0.5448001027107239,-0.05465976893901825,2.322674036026001,11
7.069180011749268,-9.603442192077637,1.0732009410858154,1.097123384475708,-0.31244614720344543,1.9519729614257812,11
7.109881401062012,-9.421483039855957,0.1628057211637497,1.1077758073806763,-0.28954365849494934,1.7638927698135376,11
7.0931220054626465,-9.268254280090332,-0.6898293495178223,1.0380029678344727,-0.21444472670555115,1.607303500175476,11
6.874950408935547,-9.004592895507812,-1.4182652235031128,0.8153693079948425,-0.0013981183292344213,1.385202407836914,11
6.525396823883057,-8.7484130859375,-2.0482394695281982,0.65771484375,0.1519954353570938,1.2882661819458008,11
6.082170009613037,-8.50869369506836,-2.491166830062866,0.65771484375,0.1519954353570938,1.2882661819458008,11
5.626972675323486,-8.262090682983398,-2.7404630184173584,-0.08049166947603226,0.8752886652946472,1.042197346687317,11
5.222053050994873,-8.094197273254395,-2.7620110511779785,-0.5225633978843689,1.2876003980636597,0.9873378872871399,11
4.920383930206299,-8.041524887084961,-2.615964651107788,-0.8816134929656982,1.5911918878555298,0.9788159728050232,11
4.810250282287598,-8.055890083312988,-2.191891670227051,-1.197987675666809,1.8239452838897705,0.9841421842575073,11
4.632780075073242,-8.216601371765137,-1.7606360912322998,-1.4152952432632446,1.9517731666564941,1.0027837753295898,11
4.4723687171936035,-8.309974670410156,-1.2767080068588257,-1.6634944677352905,2.0758728981018066,1.032610297203064,11
4.314351558685303,-8.345888137817383,-0.6874351501464844,-1.7796049118041992,2.1078298091888428,1.0688282251358032,11
4.266467571258545,-8.324339866638184,0.13168109953403473,-1.8664214611053467,2.064155340194702,1.125818133354187,11
4.474762916564941,-8.264485359191895,0.795174241065979,-1.8792041540145874,1.8905223608016968,1.1806776523590088,11
4.642356872558594,-8.240543365478516,1.413476824760437,-1.8158228397369385,1.666823387145996,1.2280805110931396,11
4.752490520477295,-8.252513885498047,1.9330185651779175,-1.6853318214416504,1.4196892976760864,1.2696245908737183,11
4.982633113861084,-8.27166748046875,2.213439464569092,-1.4861332178115845,1.0697603225708008,1.310103416442871,11
5.245995044708252,-8.288427352905273,2.3786394596099854,-1.3018479347229004,0.7788850665092468,1.3303428888320923,11
5.452195644378662,-8.317157745361328,2.4672248363494873,-1.1479216814041138,0.5706320405006409,1.3377995491027832,11
5.617395877838135,-8.32673454284668,2.476801633834839,-0.9492557644844055,0.3336176574230194,1.3447235822677612,11
5.751471042633057,-8.281244277954102,2.3977930545806885,-0.7329468727111816,0.07370080798864365,1.3468539714813232,11
5.859210014343262,-8.257302284240723,2.230198860168457,-0.6024558544158936,-0.06690994650125504,1.3441909551620483,11
5.984007835388184,-8.226178169250488,1.9788076877593994,-0.46610602736473083,-0.20166192948818207,1.3441909551620483,11
6.130053997039795,-8.21420669555664,1.7199347019195557,-0.34946301579475403,-0.292206734418869,1.3271472454071045,11
6.285677433013916,-8.190264701843262,1.492485523223877,-0.29513612389564514,-0.32096803188323975,1.307973027229309,11
6.3622918128967285,-8.12053394317627,1.2743138074874878,-0.25092896819114685,-0.3135114014148712,1.2770812511444092,11
6.393416404724121,-8.015189170837402,1.104325532913208,-0.23388522863388062,-0.2746303975582123,1.240330696105957,11
6.391022205352783,-7.869142532348633,0.9941922426223755,-0.22962428629398346,-0.2096511721611023,1.2067759037017822,11
6.395810604095459,-7.706336498260498,0.9630676507949829,-0.2466680258512497,-0.12869346141815186,1.1652318239212036,11
6.501454830169678,-7.5866265296936035,1.0085574388504028,-0.2557224929332733,-0.054127153009176254,1.1220898628234863,11
6.606799602508545,-7.526472091674805,1.061229944229126,-0.2642443776130676,0.004993279930204153,1.0672303438186646,11
6.755239963531494,-7.600991725921631,1.0995371341705322,-0.2669074535369873,0.042809050530195236,1.0166317224502563,11
6.944382190704346,-7.691971302032471,1.1593921184539795,-0.27170100808143616,0.09394023567438126,0.9457937479019165,11
7.176918983459473,-7.778162956237793,1.18094003200531,-0.26158127188682556,0.14986497163772583,0.8318138122558594,11
7.325359344482422,-7.991246700286865,1.2072762250900269,-0.25359204411506653,0.17116963863372803,0.7604432106018066,11
7.504924297332764,-8.223783493041992,1.202487826347351,-0.23228737711906433,0.196735218167305,0.6629744172096252,11
7.634510517120361,-8.415319442749023,1.183334231376648,-0.21258056163787842,0.22230081260204315,0.5862776041030884,11
7.725490570068359,-8.570942878723145,1.1641805171966553,-0.21258056163787842,0.22230081260204315,0.5862776041030884,11
7.852383136749268,-8.702624320983887,1.1330559253692627,-0.17529740929603577,0.23614884912967682,0.35299158096313477,11
7.917026519775391,-9.100360870361328,1.0971429347991943,-0.1726343333721161,0.18661551177501678,0.2762948274612427,11
8.427290916442871,-9.754277229309082,1.0157400369644165,-0.19074328243732452,0.06251586228609085,0.17190198600292206,11
9.105149269104004,-10.652701377868652,0.9510966539382935,-0.21843934059143066,-0.06531210243701935,0.050998032093048096,11
9.699210166931152,-11.610980033874512,0.9702502489089966,-0.23921139538288116,-0.18195511400699615,-0.10346075892448425,11
9.903017044067383,-12.250531196594238,1.1665748357772827,-0.21045009791851044,-0.3374791443347931,-0.41191229224205017,11
9.68005657196045,-12.375029563903809,1.5451579093933105,-0.21045009791851044,-0.3374791443347931,-0.41191229224205017,11
9.174580574035645,-11.850400924682617,2.0649988651275635,-0.1278945356607437,-0.37476229667663574,-0.5125768184661865,11
8.444049835205078,-10.779593467712402,2.6758196353912354,-0.020838620141148567,-0.40352359414100647,-0.5807517170906067,11
7.785345554351807,-9.505280494689941,3.1477766036987305,0.16291408240795135,-0.453589528799057,-0.6611768007278442,11
7.394791126251221,-8.523058891296387,3.420715570449829,0.3914065659046173,-0.5318841934204102,-0.7517216205596924,11
7.162553787231445,-7.921814918518066,3.6700119972229004,0.6523886322975159,-0.6474619507789612,-0.8657015562057495,11
7.047631740570068,-7.711124897003174,3.722684383392334,0.9352080225944519,-0.7763551473617554,-1.00577974319458,11
7.083545207977295,-7.830835342407227,3.5045127868652344,1.2760826349258423,-0.9553142786026001,-1.2023152112960815,11
7.0715742111206055,-8.230966567993164,3.02058482170105,1.471020221710205,-1.0874031782150269,-1.3349367380142212,11
6.997054576873779,-8.734047889709473,2.4241292476654053,1.692655324935913,-1.308971643447876,-1.5181567668914795,11
6.886921405792236,-9.133879661560059,1.8611925840377808,1.793319821357727,-1.4640296697616577,-1.628408432006836,11
6.750451564788818,-9.452607154846191,1.3533225059509277,1.8593642711639404,-1.684532880783081,-1.751442790031433,11
6.613982200622559,-9.759065628051758,0.9295487999916077,1.8694839477539062,-1.9636238813400269,-1.8622270822525024,11
6.5948286056518555,-10.09934139251709,0.5988497138023376,1.8353965282440186,-2.193714141845703,-1.9383912086486816,11
6.7480573654174805,-10.465953826904297,0.4288613796234131,1.7624280452728271,-2.390249729156494,-2.0193488597869873,11
6.645106792449951,-10.722132682800293,0.272938996553421,1.6915900707244873,-2.507425308227539,-2.072077989578247,11
6.472724437713623,-10.798747062683105,0.17238251864910126,1.5824036598205566,-2.591578722000122,-2.1157524585723877,11
6.331167221069336,-10.724527359008789,0.14844051003456116,1.4225521087646484,-2.597437620162964,-2.150905132293701,11
6.218639850616455,-10.535385131835938,0.22744916379451752,1.3154962062835693,-2.555360794067383,-2.1684815883636475,11
6.185120582580566,-10.31242561340332,0.32112228870391846,1.1748853921890259,-2.4637508392333984,-2.1999058723449707,11
6.177937984466553,-10.046669006347656,0.3809773325920105,0.9991220235824585,-2.302367925643921,-2.2483739852905273,11
6.10132360458374,-9.843161582946777,0.45759180188179016,0.8840768337249756,-2.1638877391815186,-2.292048692703247,11
5.962460041046143,-9.668086051940918,0.5246294736862183,0.7408030033111572,-1.9519063234329224,-2.3458428382873535,11
5.8424506187438965,-9.52922248840332,0.6012439131736755,0.596996545791626,-1.7159572839736938,-2.399637222290039,11
5.674856662750244,-9.40951156616211,0.6706757545471191,0.4473312795162201,-1.4065070152282715,-2.4582250118255615,11
5.485714435577393,-9.335291862487793,0.7544727921485901,0.16557715833187103,-0.6820819973945618,-2.5461065769195557,11
5.2986674308776855,-9.280224800109863,0.8382698893547058,0.16557715833187103,-0.6820819973945618,-2.5461065769195557,11
5.042488098144531,-9.222464561462402,0.9103952050209045,0.15172912180423737,-0.6357443928718567,-2.5514328479766846,11
4.786308288574219,-9.131484985351562,0.9678560495376587,0.09846747666597366,-0.46104615926742554,-2.554628610610962,11
4.527435302734375,-9.071630477905273,1.003769040107727,0.04041227698326111,-0.26930421590805054,-2.5434436798095703,11
4.302380561828613,-9.030928611755371,1.0324994325637817,0.0009986559161916375,-0.10632357001304626,-2.5136170387268066,11
4.098574161529541,-9.033323287963867,1.0205284357070923,-0.027230018749833107,0.02523270808160305,-2.469409942626953,11
3.856759548187256,-8.980650901794434,0.9917980432510376,-0.07995905727148056,0.2047244757413864,-2.3261361122131348,11
3.653252601623535,-8.935160636901855,0.9343371987342834,-0.08475260436534882,0.2185724973678589,-2.306429147720337,11
3.4829649925231934,-8.925583839416504,0.8696937561035156,-0.10872034728527069,0.27609509229660034,-2.204166889190674,11
3.3512837886810303,-8.932766914367676,0.8191162347793579,-0.1278945356607437,0.29899758100509644,-2.1391875743865967,11
3.2148144245147705,-8.937555313110352,0.7927800416946411,-0.1278945356607437,0.29899758100509644,-2.1391875743865967,11
3.082834005355835,-8.925583839416504,0.8310872912406921,-0.19819991290569305,0.3213675022125244,-1.8302700519561768,11
2.9176340103149414,-8.856152534484863,0.8768763542175293,-0.21897196769714355,0.29633450508117676,-1.6768765449523926,11
2.7572224140167236,-8.71489429473877,0.9367313981056213,-0.23228737711906433,0.26650798320770264,-1.5160263776779175,11
2.6303298473358154,-8.549394607543945,1.0492589473724365,-0.2344178408384323,0.23455099761486053,-1.3807417154312134,11
2.4600422382354736,-8.427290916442871,1.1976994276046753,-0.22802644968032837,0.18821336328983307,-1.1991194486618042,11
2.3283610343933105,-8.257302284240723,1.3413515090942383,-0.2035260796546936,0.12962554395198822,-1.007910132408142,11
2.2852654457092285,-8.077438354492188,1.4876971244812012,-0.09487231820821762,-0.054127153009176254,-0.5903388261795044,11
2.342726469039917,-8.022371292114258,1.6002246141433716,-0.07995905727148056,-0.07223611325025558,-0.5525230765342712,11
2.5393502712249756,-8.144774436950684,1.676838994026184,-0.051730379462242126,-0.11218235641717911,-0.47902196645736694,11
2.838625431060791,-8.465598106384277,1.6600795984268188,0.04786890745162964,-0.2293579876422882,-0.23288656771183014,11
3.224391222000122,-8.884882926940918,1.5283985137939453,0.10965242236852646,-0.2948698103427887,-0.08215609937906265,11
3.552396774291992,-9.241618156433105,1.3437457084655762,0.14959865808486938,-0.33162036538124084,0.029693370684981346,11
3.784933567047119,-9.431059837341309,1.104325532913208,0.17782734334468842,-0.35239240527153015,0.1575213372707367,11
3.880701780319214,-9.445425033569336,0.8505401611328125,0.1783599555492401,-0.33215296268463135,0.305056095123291,11
3.8854901790618896,-9.301773071289062,0.5844845175743103,0.14587034285068512,-0.2804891765117645,0.4334166944026947,11
3.9381625652313232,-9.155426979064941,0.3546411395072937,0.04946675896644592,-0.208053320646286,0.6065170764923096,11
4.314351558685303,-9.361627578735352,0.08140286058187485,0.006857437547296286,-0.19207483530044556,0.6512568593025208,11
4.908412933349609,-9.9772367477417,-0.24660277366638184,-0.13481855392456055,-0.16171568632125854,0.7322145700454712,11
5.416282653808594,-10.877756118774414,-0.5677250623703003,-0.3116472363471985,-0.06957302987575531,0.7758890986442566,11
5.631761074066162,-11.536760330200195,-0.8406640887260437,-0.567835807800293,0.1418757289648056,0.8142374753952026,11
5.538387298583984,-11.819275856018066,-0.9103952050209045,-0.805915355682373,0.3788900673389435,0.8611077666282654,11
4.937143325805664,-11.584644317626953,-0.7520785927772522,-1.0392680168151855,0.638806939125061,0.9527177810668945,11
4.026748180389404,-10.746074676513672,-0.29957449436187744,-1.3258156776428223,0.9845415949821472,1.2483199834823608,11
3.0517094135284424,-9.727940559387207,0.3809773325920105,-1.3535116910934448,1.010107159614563,1.2973207235336304,11
2.4193408489227295,-8.83939266204834,1.2336124181747437,-1.4376651048660278,1.1214240789413452,1.6323364973068237,11
2.234987258911133,-8.192659378051758,2.0649988651275635,-1.420088768005371,1.1368699073791504,1.8576332330703735,11
2.469619035720825,-7.964910507202148,2.776376247406006,-1.3167611360549927,1.1278154850006104,2.1181492805480957,11
3.013402223587036,-8.115745544433594,3.339312791824341,-1.1266170740127563,1.1171631813049316,2.326402425765991,11
3.7370495796203613,-8.381800651550293,3.7274727821350098,-0.8069806098937988,1.0958584547042847,2.4984374046325684,11
4.455609321594238,-8.604461669921875,3.947739362716675,-0.47675836086273193,1.0527164936065674,2.5724711418151855,11
5.140650272369385,-8.841787338256836,3.9046437740325928,-0.18488450348377228,1.0031832456588745,2.5964388847351074,11
5.7323174476623535,-9.169792175292969,3.5619735717773438,0.17250117659568787,0.9045825600624084,2.593775749206543,11
6.256947040557861,-9.534010887145996,3.0325558185577393,0.5613112449645996,0.7543846964836121,2.552764415740967,11
6.657077789306641,-9.852738380432129,2.2852654457092285,0.8095105290412903,0.6196327209472656,2.49151349067688,11
6.953958988189697,-10.015543937683105,1.4637550115585327,0.9671649932861328,0.48967429995536804,2.4046969413757324,11
7.131429195404053,-9.955689430236816,0.613214910030365,1.0230897665023804,0.3666398823261261,2.289651870727539,11
7.334936141967773,-9.893440246582031,-0.2322375625371933,0.9937958121299744,0.29686713218688965,2.1708784103393555,11
7.255927562713623,-9.632172584533691,-0.9654618501663208,0.8691635727882385,0.24626855552196503,2.017484664916992,11
6.989871978759766,-9.248801231384277,-1.5690999031066895,0.6614431142807007,0.27556246519088745,1.8688181638717651,11
6.568492412567139,-8.796297073364258,-2.007538080215454,0.32536211609840393,0.3996621072292328,1.7330009937286377,11
6.177937984466553,-8.41771411895752,-2.206256866455078,0.06757572293281555,0.5179029703140259,1.6765435934066772,11
5.97682523727417,-8.348281860351562,-2.40736985206604,-0.35851749777793884,0.7165689468383789,1.6163579225540161,11
5.6341552734375,-8.30518627166748,-2.369062662124634,-0.7143053412437439,0.9274850487709045,1.5977163314819336,11
5.480926036834717,-8.288427352905273,-2.0602104663848877,-0.975354015827179,1.0825430154800415,1.600912094116211,11
5.430647850036621,-8.312369346618652,-1.5236101150512695,-1.259238600730896,1.252980351448059,1.6158252954483032,11
5.478531837463379,-8.369830131530762,-0.8888474106788635,-1.4728177785873413,1.3648297786712646,1.6280754804611206,11
5.524022102355957,-8.436867713928223,-0.05985504388809204,-1.6128959655761719,1.429276466369629,1.6445866823196411,11
5.636549472808838,-8.434473037719727,0.8505401611328125,-1.6688207387924194,1.3733516931533813,1.6626956462860107,11
5.900210857391357,-8.319551467895508,1.490091323852539,-1.6363310813903809,1.267361044883728,1.6621630191802979,11
6.012738227844238,-8.207024574279785,2.122459888458252,-1.5170249938964844,1.1240870952606201,1.6531084775924683,11
6.156390190124512,-8.089408874511719,2.5824458599090576,-0.8682980537414551,0.5669037103652954,1.4970518350601196,11
6.407781600952148,-7.998429298400879,2.747645616531372,-0.8682980537414551,0.5669037103652954,1.4970518350601196,11
6.645106792449951,-7.931391716003418,2.7572224140167236,-0.8682980537414551,0.5669037103652954,1.4970518350601196,11
6.860584735870361,-7.902661323547363,2.6518776416778564,-0.7542515397071838,0.5003266334533691,1.4432575702667236,11
7.033266544342041,-7.88350772857666,2.4456770420074463,-0.5566508173942566,0.4092492163181305,1.3271472454071045,11
7.124246597290039,-7.878719329833984,2.1368250846862793,-0.4373447299003601,0.3778248429298401,1.2227543592453003,11
7.152976989746094,-7.84998893737793,1.822885274887085,-0.36863720417022705,0.3677051365375519,1.141796588897705,11
7.109881401062012,-7.7877397537231445,1.5283985137939453,-0.31644079089164734,0.362911581993103,1.0405994653701782,11
7.0236897468566895,-7.727884769439697,1.303044319152832,-0.29513612389564514,0.3767596185207367,0.9346088171005249,11
6.930016994476318,-7.6536641120910645,1.1785458326339722,-0.28874471783638,0.386346697807312,0.8744231462478638,11
6.853402137756348,-7.581838130950928,1.1091139316558838,-0.29353827238082886,0.40179258584976196,0.810509204864502,11
6.781576156616211,-7.488164901733398,1.1402385234832764,-0.29353827238082886,0.4289560317993164,0.7418016195297241,11
6.736086368560791,-7.346907138824463,1.224035620689392,-0.2908751964569092,0.4406735897064209,0.6949313879013062,11
6.685808181762695,-7.174524784088135,1.3509283065795898,-0.27223360538482666,0.44546714425086975,0.6320826411247253,11
6.712144374847412,-7.021295547485352,1.4781203269958496,-0.25039634108543396,0.4390757381916046,0.5852124094963074,11
6.80551815032959,-6.9707183837890625,1.533186912536621,-0.21684150397777557,0.43534740805625916,0.5154396295547485,11
6.999448776245117,-7.083545207977295,1.5714941024780273,-0.16943863034248352,0.44546714425086975,0.40998154878616333,11
7.229591369628906,-7.287052154541016,1.5882534980773926,-0.12629668414592743,0.45665207505226135,0.3039908707141876,11
7.4187331199646,-7.495347499847412,1.559523105621338,-0.0868830680847168,0.45824992656707764,0.18575000762939453,11
7.504924297332764,-7.742249965667725,1.4685434103012085,-0.051730379462242126,0.47529366612434387,0.07656362652778625,11
7.476193904876709,-8.024765968322754,1.3341689109802246,-0.028827868402004242,0.4822176694869995,0.0003994623839389533,11
7.4426751136779785,-8.298004150390625,1.1881226301193237,-0.015512456186115742,0.4928700029850006,-0.06298190355300903,11
7.548020362854004,-8.626008987426758,1.0564415454864502,-0.015512456186115742,0.4928700029850006,-0.06298190355300903,11
8.012794494628906,-9.270648002624512,0.884058952331543,-0.06398055702447891,0.3464004695415497,-0.23501703143119812,11
8.832210540771484,-10.398916244506836,0.7018003463745117,-0.21950457990169525,0.06517894566059113,-0.5642406344413757,11
9.411906242370605,-11.776180267333984,0.5988497138023376,-0.22962428629398346,0.050265684723854065,-0.5882083773612976,11
9.510068893432617,-12.665027618408203,0.6706757545471191,-0.23761354386806488,0.036417655646800995,-0.6020563840866089,11
9.205705642700195,-12.930784225463867,0.9487023949623108,-0.2701031565666199,-0.026431094855070114,-0.6478614211082458,11
8.743624687194824,-12.576143264770508,1.4685434103012085,-0.2679726779460907,-0.09407339245080948,-0.6510571241378784,11
8.27166748046875,-11.618163108825684,2.0913352966308594,-0.19074328243732452,-0.2416081726551056,-0.647328794002533,11
7.88350772857666,-10.350732803344727,2.730886220932007,-0.06025224179029465,-0.41417592763900757,-0.6595789790153503,11
7.7230963706970215,-9.265859603881836,3.2626984119415283,0.11444596946239471,-0.6048526167869568,-0.7176342010498047,11
7.732673168182373,-8.42968463897705,3.679588794708252,0.33654704689979553,-0.8040512204170227,-0.8337445855140686,11
7.912238121032715,-7.914632320404053,4.0435075759887695,0.6065836548805237,-1.0075106620788574,-1.0169646739959717,11
8.115745544433594,-7.806893348693848,4.194342136383057,1.3554424047470093,-1.4709537029266357,-1.6811374425888062,11
8.223783493041992,-8.077438354492188,4.081814765930176,1.401780128479004,-1.4965192079544067,-1.7349317073822021,11
8.089408874511719,-8.573336601257324,3.701136589050293,1.4523786306381226,-1.5172913074493408,-1.7844650745391846,11
7.71591329574585,-9.07641887664795,3.092710018157959,1.6495133638381958,-1.6014447212219238,-2.0172183513641357,11
7.354089736938477,-9.58668327331543,2.4384944438934326,1.8657556772232056,-1.685065507888794,-2.3644843101501465,11
