AccX,AccY,AccZ,GyroX,GyroY,GyroZ,Label
-0.8382698893547058,2.4432828426361084,9.548376083374023,-0.19500422477722168,-0.21391209959983826,-0.24566936492919922,11
-0.8047510385513306,2.4217350482940674,9.718363761901855,-0.15559059381484985,-0.2826196253299713,-0.24194104969501495,11
-0.7688380479812622,2.364274263381958,9.797372817993164,-0.11085081100463867,-0.31830495595932007,-0.23501703143119812,11
-0.7425017952919006,2.3283610343933105,9.785401344299316,-0.07037195563316345,-0.34067484736442566,-0.22329947352409363,11
-0.7305307984352112,2.318784236907959,9.761459350585938,-0.04320851340889931,-0.3380117416381836,-0.21104928851127625,11
-0.6706757545471191,2.342726469039917,9.720758438110352,-0.02776263654232025,-0.3252289593219757,-0.19666863977909088,11
-0.651522159576416,2.3235726356506348,9.711181640625,-0.022969087585806847,-0.2938045859336853,-0.1721682846546173,11
-0.613214910030365,2.345120668411255,9.742305755615234,-0.03149095177650452,-0.2842174768447876,-0.14820054173469543,11
-0.512658417224884,2.4145524501800537,9.766247749328613,-0.05066514387726784,-0.273032546043396,-0.12476541846990585,11
-0.3737947344779968,2.472013235092163,9.903017044067383,-0.06930672377347946,-0.2836848795413971,-0.11358047276735306,11
-0.2059013396501541,2.4863784313201904,10.096946716308594,-0.075698122382164,-0.2863479554653168,-0.11251524090766907,11
-0.07422025501728058,2.491166830062866,10.283695220947266,-0.06611102819442749,-0.29700028896331787,-0.1205044835805893,11
-0.028730420395731926,2.5007436275482178,10.406098365783691,-0.05066514387726784,-0.3039242923259735,-0.13381989300251007,11
-0.038307227194309235,2.5585038661956787,10.494684219360352,-0.004860125482082367,-0.3044569194316864,-0.12583065032958984,11
-0.06464344263076782,2.6566660404205322,10.528203010559082,-0.004860125482082367,-0.3044569194316864,-0.12583065032958984,11
-0.07661445438861847,2.7859530448913574,10.597634315490723,0.028162097558379173,-0.2863479554653168,-0.11784140020608902,11
-0.05027823522686958,2.8936920166015625,10.655095100402832,0.08035851269960403,-0.2533257305622101,-0.11837401986122131,11
0.011971008032560349,2.9319992065429688,10.64551830291748,0.14001156389713287,-0.21178163588047028,-0.12796111404895782,11
0.05027823522686958,2.951152801513672,10.57848072052002,0.20499077439308167,-0.188879132270813,-0.14820054173469543,11
0.040701430290937424,3.0325558185577393,10.48750114440918,0.2555893361568451,-0.20166192948818207,-0.1742987483739853,11
-0.05506663769483566,3.1477766036987305,10.360309600830078,0.3072531521320343,-0.22403182089328766,-0.20359265804290771,11
-0.09576806426048279,3.289034605026245,10.310030937194824,0.3296230435371399,-0.24853217601776123,-0.2270277887582779,11
0.06703764945268631,3.267486810684204,10.326790809631348,0.31417715549468994,-0.35505548119544983,-0.28455036878585815,11
0.3330933153629303,3.037344217300415,10.362703323364258,0.25985029339790344,-0.47915512323379517,-0.35698622465133667,11
0.5868787169456482,2.752434015274048,10.473135948181152,0.1810230314731598,-0.5606454610824585,-0.420966774225235,11
0.81672203540802,2.495955228805542,10.820295333862305,0.027629481628537178,-0.6911364793777466,-0.5040549635887146,11
1.0444705486297607,2.122459888458252,11.261127471923828,-0.08368737250566483,-0.7582461833953857,-0.5455990433692932,11
1.2958617210388184,1.55712890625,11.65647029876709,-0.23015691339969635,-0.7539852261543274,-0.593534529209137,11
1.514033317565918,0.8864531517028809,12.061090469360352,-0.2967339754104614,-0.6538533568382263,-0.6350786089897156,11
1.5451579093933105,0.26575639843940735,12.444461822509766,-0.28874471783638,-0.46956804394721985,-0.6595789790153503,11
1.3772644996643066,-0.2585737705230713,12.595296859741211,-0.0975354015827179,-0.004593817517161369,-0.6329481601715088,11
1.0516531467437744,-0.673069953918457,12.466010093688965,0.17090332508087158,0.35865065455436707,-0.5498600006103516,11
0.6587047576904297,-0.9103952050209045,12.003629684448242,0.37649330496788025,0.5274900794029236,-0.4614456295967102,11
0.22744916379451752,-0.9989806413650513,11.241973876953125,0.42815709114074707,0.5535882711410522,-0.43588003516197205,11
-0.07422025501728058,-0.9175778031349182,10.31242561340332,0.6614431142807007,0.5919366478919983,-0.3106485903263092,11
-0.1604115068912506,-0.7472901940345764,9.34965705871582,0.8409348726272583,0.47955459356307983,-0.1945381760597229,11
-0.08858546614646912,-0.553359866142273,8.436867713928223,0.9921979904174805,-0.03655080869793892,-0.053394805639982224,11
0.1388636976480484,-0.34745851159095764,7.660846710205078,0.9921979904174805,-0.03655080869793892,-0.053394805639982224,11
0.44083237648010254,-0.10295066982507706,7.047631740570068,0.9591757655143738,-0.21337948739528656,-0.036351077258586884,11
0.8239046335220337,0.08619125932455063,6.592434406280518,0.8483915328979492,-0.40458881855010986,-0.036351077258586884,11
1.245583415031433,0.2561795711517334,6.333561420440674,0.6699649691581726,-0.5196340084075928,-0.060851436108350754,11
1.6050130128860474,0.4073135554790497,6.285677433013916,0.44999438524246216,-0.5313515663146973,-0.10133028775453568,11
1.854009985923767,0.5557540655136108,6.434117794036865,0.22043666243553162,-0.45944830775260925,-0.15778763592243195,11
1.985990285873413,0.6587047576904297,6.721721172332764,-0.19713468849658966,-0.1760963350534439,-0.2792242169380188,11
1.9716250896453857,0.7808090448379517,7.131429195404053,-0.19713468849658966,-0.1760963350534439,-0.2792242169380188,11
1.8468273878097534,0.8672995567321777,7.603385925292969,-0.37875691056251526,0.02523270808160305,-0.34686651825904846,11
1.6241666078567505,0.922366201877594,8.118139266967773,-0.41976839303970337,0.08435314148664474,-0.366573303937912,11
1.348534107208252,1.0109516382217407,8.554183006286621,-0.43361642956733704,0.13814741373062134,-0.38368362188339233,11
1.080383539199829,1.1234791278839111,8.868123054504395,-0.39899635314941406,0.1312233954668045,-0.3858141005039215,11
0.8023568391799927,1.2671312093734741,9.093177795410156,-0.3505282402038574,0.10938611626625061,-0.3762269914150238,11
0.6060323119163513,1.4422072172164917,9.196128845214844,-0.2759619355201721,0.048135217279195786,-0.34633389115333557,11
0.43843817710876465,1.63613760471344,9.186552047729492,-0.17902572453022003,-0.04187697172164917,-0.2882786989212036,11
0.34985271096229553,1.8300678730010986,9.150638580322266,-0.10872034728527069,-0.12017159909009933,-0.23288656771183014,11
0.3570353388786316,2.0219032764434814,9.071630477905273,-0.05386084318161011,-0.20059669017791748,-0.183885857462883,11
0.4480150043964386,2.1751322746276855,8.96149730682373,-0.01604507304728031,-0.24373863637447357,-0.14766792953014374,11
0.5509656667709351,2.2852654457092285,8.827422142028809,0.007390053942799568,-0.2421407848596573,-0.12103710323572159,11
0.694617748260498,2.3499090671539307,8.681076049804688,0.010053136385977268,-0.22509706020355225,-0.10346075892448425,11
0.8239046335220337,2.4193408489227295,8.628403663635254,-0.004860125482082367,-0.20752070844173431,-0.09600412845611572,11
0.9846154451370239,2.4887726306915283,8.630797386169434,-0.020838620141148567,-0.18408557772636414,-0.10079767554998398,11
1.0851719379425049,2.527379274368286,8.669105529785156,-0.037882350385189056,-0.12283468246459961,-0.12476541846990585,11
1.1115081310272217,2.532167673110962,8.724471092224121,-0.04054543375968933,-0.06904041767120361,-0.151396244764328,11
1.0755951404571533,2.49834942817688,8.755595207214355,-0.03894758224487305,0.003928046673536301,-0.19187510013580322,11
0.9630676507949829,2.5007436275482178,8.834604263305664,-0.025632169097661972,0.02523270808160305,-0.20838621258735657,11
0.8095394372940063,2.5369560718536377,8.89445972442627,-0.009121057577431202,0.020439159125089645,-0.20998406410217285,11
0.6395511031150818,2.5608980655670166,8.951920509338379,0.006324821151793003,-0.0035285844933241606,-0.18974463641643524,11
0.5773018598556519,2.635118246078491,8.999804496765137,0.021770700812339783,-0.049866221845149994,-0.15832026302814484,11
0.6036381125450134,2.7141268253326416,9.064447402954102,0.030825180932879448,-0.11644328385591507,-0.11837401986122131,11
0.6898293495178223,2.81707763671875,9.162610054016113,0.027096865698695183,-0.18621604144573212,-0.08375394344329834,11
0.8457517623901367,2.9200282096862793,9.289801597595215,0.013248835690319538,-0.24746695160865784,-0.05712312087416649,11
1.0205284357070923,3.0277674198150635,9.466972351074219,-0.0032622760627418756,-0.27835869789123535,-0.041677240282297134,11
1.1737574338912964,3.1501708030700684,9.701604843139648,-0.013381989672780037,-0.261847585439682,-0.037416309118270874,11
1.2623428106307983,3.243544816970825,9.922170639038086,-0.004327509086579084,-0.18195511400699615,-0.043807707726955414,11
1.27191960811615,3.3033998012542725,10.096946716308594,0.016977151855826378,-0.03655080869793892,-0.060851436108350754,11
1.1378443241119385,3.4302923679351807,10.28130054473877,0.054792921990156174,0.07636389136314392,-0.07043853402137756,11
0.9367313981056213,3.5260605812072754,10.45398235321045,0.12456568330526352,0.21324633061885834,-0.06937330216169357,11
0.6850409507751465,3.595492362976074,10.561721801757812,0.1810230314731598,0.25638827681541443,-0.05659050494432449,11
0.4216787815093994,3.658041000366211,10.602422714233398,0.256121963262558,0.2840843200683594,-0.027829213067889214,11
0.1867477297782898,3.720290184020996,10.662278175354004,0.3424058258533478,0.2883452773094177,0.02276935614645481,11
0.0694318488240242,3.722684383392334,10.671854972839355,0.4217657148838043,0.24573594331741333,0.07762885838747025,11
0.047884032130241394,3.6891655921936035,10.662278175354004,0.5133757591247559,0.18768073618412018,0.14047759771347046,11
0.1412578970193863,3.6146459579467773,10.61199951171875,0.5794202089309692,0.15945206582546234,0.17403244972229004,11
0.26096799969673157,3.533243179321289,10.532991409301758,0.6358775496482849,0.16744130849838257,0.1894783228635788,11
0.29478609561920166,3.4829649925231934,10.381856918334961,0.6854108572006226,0.21218110620975494,0.19640234112739563,11
0.34027591347694397,3.451840400695801,10.120888710021973,0.7040524482727051,0.22496390342712402,0.20172850787639618,11
0.4073135554790497,3.4278981685638428,9.778219223022461,0.6694324016571045,0.14666926860809326,0.20279373228549957,11
0.5437830686569214,3.449446201324463,9.419088363647461,0.6044531464576721,0.0678420290350914,0.19267402589321136,11
0.8095394372940063,3.3871967792510986,9.248801231384277,0.3519929349422455,-0.18994435667991638,0.11917294561862946,11
1.1976994276046753,3.0660746097564697,9.344868659973145,0.12083736807107925,-0.376360148191452,0.033954303711652756,11
1.5667057037353516,2.4193408489227295,9.665691375732422,-0.06664364039897919,-0.47915512323379517,-0.04114462435245514,11
1.8037316799163818,1.6840215921401978,10.19032096862793,-0.26477697491645813,-0.5206992030143738,-0.13754820823669434,11
1.8348562717437744,0.9750386476516724,10.688613891601562,-0.3936701714992523,-0.4136433005332947,-0.2275604009628296,11
1.535581111907959,0.41449618339538574,11.158177375793457,-0.33774545788764954,0.23295314610004425,-0.29573532938957214,11
0.9080010056495667,0.009576806798577309,11.313799858093262,-0.33774545788764954,0.23295314610004425,-0.29573532938957214,11
0.10773907601833344,-0.1867477297782898,11.069591522216797,-0.13215547800064087,0.7703632116317749,-0.23022349178791046,11
-0.7113772034645081,-0.1604115068912506,10.51862621307373,0.0734345018863678,1.1214240789413452,-0.1199718713760376,11
-1.3221979141235352,0.004788403399288654,9.648932456970215,0.2124474048614502,1.2918612957000732,-0.007057168986648321,11
-1.6481086015701294,0.2828150689601898,8.719682693481445,0.3179054856300354,1.321155309677124,0.13142313063144684,11
-1.7438766956329346,0.5988497138023376,7.979275703430176,0.3296230435371399,1.0809452533721924,0.262446790933609,11
-1.6457144021987915,0.884058952331543,7.40676212310791,0.3296230435371399,1.0809452533721924,0.262446790933609,11
-1.3605051040649414,1.0516531467437744,7.107487201690674,0.10752195864915848,0.27716031670570374,0.3588503897190094,11
-0.884058952331543,1.0971429347991943,7.167342185974121,-0.03948019817471504,-0.07596442848443985,0.3492632806301117,11
-0.3067570924758911,0.9487023949623108,7.555202960968018,-0.26158127188682556,-0.4844813048839569,0.2944037914276123,11
0.20111294090747833,0.6395511031150818,8.173505783081055,-0.3973985016345978,-0.6463966965675354,0.2427399754524231,11
0.5461772680282593,0.400130957365036,8.851364135742188,-0.523095965385437,-0.6927343606948853,0.17190198600292206,11
0.735319197177887,0.2082955539226532,9.459790229797363,-0.5928687453269958,-0.5398734211921692,0.10479229688644409,11
0.7496843934059143,0.0454898327589035,9.948506355285645,-0.5965970754623413,-0.2517278790473938,0.05579157918691635,11
0.5629366636276245,-0.05027823522686958,10.231022834777832,-0.5268242955207825,0.13974525034427643,0.05259587988257408,11
0.2537853717803955,-0.016759412363171577,10.242993354797363,-0.4479970633983612,0.3655746579170227,0.08774857223033905,11
-0.06703764945268631,0.11971008777618408,9.929352760314941,-0.3207017183303833,0.5748929381370544,0.18202169239521027,11
-0.29239189624786377,0.3737947344779968,9.38556957244873,-0.265309602022171,0.616969645023346,0.22995717823505402,11
-0.39294835925102234,0.6251859068870544,8.810662269592285,-0.18967805802822113,0.5924692749977112,0.316241055727005,11
-0.4695627987384796,0.9056068062782288,8.314763069152832,-0.17796048521995544,0.5509251952171326,0.3402087986469269,11
-0.5342062711715698,1.2192472219467163,7.926603317260742,-0.17796048521995544,0.5509251952171326,0.3402087986469269,11
-0.5773018598556519,1.5164275169372559,7.713519096374512,-0.183286651968956,0.13868002593517303,0.4685693681240082,11
-0.5102642178535461,1.7486650943756104,7.632116317749023,-0.20139561593532562,0.037482887506484985,0.4898740351200104,11
-0.3570353388786316,1.9473837614059448,7.646481513977051,-0.23388522863388062,-0.05465976893901825,0.5079829692840576,11
-0.14604631066322327,2.1104888916015625,7.694365501403809,-0.2669074535369873,-0.06904041767120361,0.5010589957237244,11
-0.0071826050989329815,2.2254104614257812,7.830835342407227,-0.30685368180274963,-0.04507267102599144,0.48241740465164185,11
0.07661445438861847,2.3523032665252686,8.041524887084961,-0.34733253717422485,-0.00991998240351677,0.45951488614082336,11
0.05267243832349777,2.474407434463501,8.283638954162598,-0.377159059047699,0.02097177505493164,0.44034069776535034,11
-0.011971008032560349,2.556109666824341,8.580519676208496,-0.40911605954170227,0.04440690204501152,0.40891632437705994,11
-0.07661445438861847,2.620753049850464,8.913613319396973,-0.4176379144191742,0.040678586810827255,0.39506828784942627,11
-0.11013327538967133,2.639906644821167,9.244012832641602,-0.4085834324359894,0.004460663069039583,0.38761165738105774,11
-0.07900865375995636,2.6542718410491943,9.543587684631348,-0.3830178380012512,-0.044540055096149445,0.381220281124115,11
-0.019153613597154617,2.65906023979187,9.82879638671875,-0.34626731276512146,-0.08022536337375641,0.37376365065574646,11
0.0694318488240242,2.639906644821167,10.111311912536621,-0.3105820119380951,-0.10685618966817856,0.3615134656429291,11
0.17238251864910126,2.6063878536224365,10.324396133422852,-0.24879848957061768,-0.11804113537073135,0.34074142575263977,11
0.2852092683315277,2.519897222518921,10.45398235321045,-0.17369955778121948,-0.0919429287314415,0.305056095123291,11
0.34027591347694397,2.474407434463501,10.511443138122559,-0.09540493041276932,-0.03122464381158352,0.2635120153427124,11
0.29478609561920166,2.4217350482940674,10.458770751953125,-0.016577688977122307,0.046004749834537506,0.21451130509376526,11
0.1867477297782898,2.4241292476654053,10.357914924621582,0.04467320814728737,0.09500546753406525,0.17349982261657715,11
0.0454898327589035,2.450465440750122,10.254964828491211,0.09900009632110596,0.08435314148664474,0.13834713399410248,11
-0.07661445438861847,2.469619035720825,10.214262962341309,0.11870690435171127,0.037482887506484985,0.12449911236763,11
-0.14365209639072418,2.45285964012146,10.207080841064453,0.12190260738134384,0.023634858429431915,0.12343387305736542,11
-0.13407529890537262,2.388216257095337,10.290877342224121,0.13255493342876434,-0.14041103422641754,0.13834713399410248,11
-0.038307227194309235,2.3475148677825928,10.42764663696289,0.12989185750484467,-0.19314005970954895,0.16444534063339233,11
0.06224924325942993,2.321178436279297,10.57848072052002,0.13202232122421265,-0.21231426298618317,0.1894783228635788,11
0.24899697303771973,2.292448043823242,10.70058536529541,0.13521802425384521,-0.20539024472236633,0.20865251123905182,11
0.43364977836608887,2.2828712463378906,10.820295333862305,0.14533773064613342,-0.20379239320755005,0.2209026962518692,11
0.5701192617416382,2.3283610343933105,10.834660530090332,0.16078360378742218,-0.1872812807559967,0.21877223253250122,11
0.6299743056297302,2.433706045150757,10.822689056396484,0.17676210403442383,-0.1665092408657074,0.21238084137439728,11
0.6371569037437439,2.5824458599090576,10.779593467712402,0.20392554998397827,-0.1254977583885193,0.20226112008094788,11
0.613214910030365,2.793135643005371,10.657489776611328,0.22576282918453217,-0.26930421590805054,0.19267402589321136,11
0.6658873558044434,2.9367876052856445,10.497077941894531,0.21937142312526703,-0.3177723288536072,0.19267402589321136,11
0.9510966539382935,2.9391818046569824,10.338761329650879,0.20605601370334625,-0.36410996317863464,0.1878804713487625,11
1.3341689109802246,2.836231231689453,10.324396133422852,0.11231550574302673,-0.71723473072052,0.15059731900691986,11
1.777395486831665,2.7165210247039795,10.568903923034668,-0.06025224179029465,-1.1646325588226318,0.03661738336086273,11
2.275688648223877,2.3977930545806885,10.983400344848633,-0.07995905727148056,-1.1949917078018188,0.0185084231197834,11
2.7428572177886963,1.901893973350525,11.435904502868652,-0.15505798161029816,-1.29512357711792,-0.06884068250656128,11
3.1022868156433105,1.367687702178955,11.922226905822754,-0.18914544582366943,-1.2706232070922852,-0.1529940962791443,11
3.2746694087982178,0.8792705535888672,12.267291069030762,-0.18009096384048462,-0.9846081733703613,-0.29786577820777893,11
3.1693243980407715,0.41210195422172546,12.415731430053711,-0.13162285089492798,-0.6639730334281921,-0.3879445493221283,11
2.7332804203033447,0.06224924325942993,12.3175687789917,-0.008588441647589207,-0.08821461349725723,-0.4944678544998169,11
2.0147206783294678,-0.17477671802043915,11.881525039672852,0.10166317969560623,0.2899430990219116,-0.5232291221618652,11
1.245583415031433,-0.309151291847229,11.158177375793457,0.36371049284935,0.8917997479438782,-0.45931515097618103,11
0.6706757545471191,-0.4025251567363739,10.290877342224121,0.4153743088245392,0.9423983693122864,-0.42522770166397095,11
0.29478609561920166,-0.41210195422172546,9.44303035736084,0.5165714621543884,0.9285503029823303,-0.33727940917015076,11
0.07182604819536209,-0.34267011284828186,8.695441246032715,0.5852789878845215,0.7565152049064636,-0.2552564740180969,11
0.0454898327589035,-0.26575639843940735,8.125322341918945,0.6177685856819153,0.5509251952171326,-0.2041252851486206,11
0.22266076505184174,-0.19393034279346466,7.70394229888916,0.6193664073944092,0.22336605191230774,-0.16471165418624878,11
0.5796960592269897,-0.1364694982767105,7.440280914306641,0.5767571330070496,-0.10685618966817856,-0.1620485782623291,11
1.0899603366851807,-0.11971008777618408,7.325359344482422,0.4979298710823059,-0.3497293293476105,-0.18654893338680267,11
1.6816273927688599,-0.17238251864910126,7.337330341339111,0.3605147898197174,-0.45731785893440247,-0.2488650679588318,11
2.1703438758850098,-0.23942017555236816,7.433098316192627,0.2545241117477417,-0.4408067464828491,-0.30692026019096375,11
2.4432828426361084,-0.20350714027881622,7.512106895446777,0.10805457830429077,-0.3135114014148712,-0.39167287945747375,11
2.4887726306915283,-0.08379705995321274,7.682394504547119,-0.07463289052248001,-0.0706382617354393,-0.5131094455718994,11
2.3355438709259033,0.12449848651885986,7.905055522918701,-0.22110243141651154,0.1434735655784607,-0.6073825359344482,11
1.9569605588912964,0.3522469103336334,8.183082580566406,-0.3180386424064636,0.29686713218688965,-0.6606442332267761,11
1.4733319282531738,0.5054758191108704,8.48475170135498,-0.40112680196762085,0.4305538833141327,-0.6862097978591919,11
0.9510966539382935,0.6251859068870544,8.746018409729004,-0.43468165397644043,0.5013918876647949,-0.6638398766517639,11
0.5102642178535461,0.773626446723938,8.942343711853027,-0.4256271719932556,0.5067180395126343,-0.6201653480529785,11
0.1628057211637497,0.9965864419937134,9.066842079162598,-0.377159059047699,0.4710327386856079,-0.5376098155975342,11
-0.08858546614646912,1.3078327178955078,9.153033256530762,-0.30365797877311707,0.4097818434238434,-0.4390757381916046,11
-0.18914192914962769,1.6385318040847778,9.167398452758789,-0.19021067023277283,0.30858469009399414,-0.31650736927986145,11
-0.1628057211637497,1.9641432762145996,9.148244857788086,-0.10499203205108643,0.23242053389549255,-0.24460414052009583,11
-0.05267243832349777,2.230198860168457,9.090784072875977,0.027629481628537178,0.1211036816239357,-0.16737474501132965,11
0.17956513166427612,2.4145524501800537,8.908824920654297,0.11870690435171127,0.0465373694896698,-0.13595037162303925,11
0.44322657585144043,2.556109666824341,8.649951934814453,0.1783599555492401,-0.01045259926468134,-0.13648298382759094,11
0.6682815551757812,2.65906023979187,8.369830131530762,0.19700153172016144,-0.04613790661096573,-0.15832026302814484,11
0.8577227592468262,2.7620110511779785,8.115745544433594,0.18528397381305695,-0.06105116754770279,-0.18654893338680267,11
0.9582792520523071,2.843413829803467,7.981669902801514,0.1378811001777649,-0.0706382617354393,-0.23182134330272675,11
0.9558850526809692,2.884115219116211,7.960122108459473,0.08568467944860458,-0.0706382617354393,-0.28455036878585815,11
0.9151836037635803,2.86256742477417,8.053496360778809,0.028162097558379173,-0.0701056495308876,-0.3340837061405182,11
0.8553285598754883,2.795529842376709,8.18068790435791,-0.002197043038904667,-0.07969274371862411,-0.3575188219547272,11
0.7305307984352112,2.723703622817993,8.4201078414917,-0.025099553167819977,-0.10845403373241425,-0.3751617670059204,11
0.5653308629989624,2.6782138347625732,8.71728801727295,-0.03149095177650452,-0.15053074061870575,-0.37030163407325745,11
0.4264671802520752,2.663848638534546,9.069235801696777,-0.016577688977122307,-0.2203035056591034,-0.3447360396385193,11
0.36661213636398315,2.635118246078491,9.390357971191406,0.021770700812339783,-0.2842174768447876,-0.2925396263599396,11
0.39294835925102234,2.575263261795044,9.708786964416504,0.10059794038534164,-0.36357733607292175,-0.21957115828990936,11
0.45759180188179016,2.551321268081665,9.941324234008789,0.18315351009368896,-0.41790422797203064,-0.14660269021987915,11
0.6012439131736755,2.6063878536224365,10.120888710021973,0.2555893361568451,-0.44879597425460815,-0.09600412845611572,11
0.7640495896339417,2.7404630184173584,10.207080841064453,0.34613415598869324,-0.45092645287513733,-0.03688369318842888,11
0.8720879554748535,2.879326820373535,10.199897766113281,0.44946175813674927,-0.39606696367263794,0.01637795753777027,11
0.9199720025062561,3.0253732204437256,10.096946716308594,0.5144409537315369,-0.32309848070144653,0.04300878196954727,11
0.9175778031349182,3.1956608295440674,9.895833969116211,0.5799527764320374,-0.21231426298618317,0.06431344151496887,11
0.8720879554748535,3.3895909786224365,9.646537780761719,0.6183012127876282,-0.10685618966817856,0.07869409024715424,11
0.7472901940345764,3.640982151031494,9.3735990524292,0.6209642887115479,-0.02802894450724125,0.08455286920070648,11
0.5964555144309998,3.85197114944458,9.196128845214844,0.5831484794616699,0.03162410482764244,0.09413997083902359,11
0.46238020062446594,4.0219597816467285,9.100360870361328,0.5368108749389648,0.05825493112206459,0.10692276805639267,11
0.3785831332206726,4.136881351470947,9.172186851501465,0.5117778778076172,0.061983246356248856,0.10905323177576065,11
0.3306991159915924,4.184765338897705,9.337685585021973,0.4004610478878021,0.04014597088098526,0.12929265201091766,11
0.31872808933258057,4.15603494644165,9.651326179504395,0.3280251920223236,0.0012649642303586006,0.13834713399410248,11
0.2828150689601898,4.069843769073486,10.116100311279297,0.30032914876937866,-0.033887725323438644,0.15965180099010468,11
0.13407529890537262,4.0650553703308105,10.638336181640625,0.3179054856300354,-0.008854749612510204,0.20226112008094788,11
-0.05506663769483566,4.20152473449707,11.069591522216797,0.3711671233177185,0.038548119366168976,0.25605538487434387,11
-0.12210428714752197,4.414907932281494,11.263522148132324,0.4462660551071167,0.039613351225852966,0.34446972608566284,11
-0.019153613597154617,4.630385875701904,11.174936294555664,0.47342950105667114,-0.12017159909009933,0.4360797703266144,11
0.29957449436187744,4.786308288574219,10.93761157989502,0.42123308777809143,-0.30871784687042236,0.4669715166091919,11
0.735319197177887,4.7189717292785645,10.798747062683105,0.2939377427101135,-0.5574497580528259,0.4440690279006958,11
1.3365631103515625,4.211400985717773,10.808323860168457,0.09047822654247284,-0.7976598143577576,0.34500235319137573,11
1.9569605588912964,3.3057940006256104,11.040861129760742,-0.21950457990169525,-0.8583781123161316,0.06005251035094261,11
2.3523032665252686,2.316390037536621,11.476605415344238,-0.21950457990169525,-0.8583781123161316,0.06005251035094261,11
2.4576480388641357,1.437418818473816,11.86955451965332,-0.28075549006462097,-0.6778210997581482,-0.09014534205198288,11
2.184709072113037,0.7065888047218323,12.159551620483398,-0.2599834203720093,-0.3582511842250824,-0.20092958211898804,11
1.6098014116287231,0.15562310814857483,12.221800804138184,-0.08475260436534882,0.26437753438949585,-0.2483324557542801,11
0.7879916429519653,-0.19871874153614044,11.900678634643555,0.02656424790620804,0.5509251952171326,-0.21850591897964478,11
-0.10295066982507706,-0.29718029499053955,11.191696166992188,0.21883881092071533,0.9989222884178162,-0.11091738939285278,11
-0.8310872912406921,-0.19153612852096558,10.199897766113281,0.394069641828537,1.3381990194320679,0.05472634732723236,11
-1.2910733222961426,0.07900865375995636,9.016563415527344,0.4984624683856964,1.4969186782836914,0.20279373228549957,11
-1.5523405075073242,0.45998600125312805,7.907449722290039,0.5474631786346436,1.4974513053894043,0.39506828784942627,11
-1.5714941024780273,0.9080010056495667,6.98508358001709,0.5080495476722717,1.3509818315505981,0.4952002167701721,11
-1.3820528984069824,1.3293805122375488,6.331167221069336,0.3951348662376404,1.0388685464859009,0.5772231221199036,11
-1.058835744857788,1.6050130128860474,6.0294976234436035,0.21724095940589905,0.616969645023346,0.6070496439933777,11
-0.5988497138023376,1.7534534931182861,6.10132360458374,0.015911918133497238,0.1434735655784607,0.5862776041030884,11
-0.07900865375995636,1.6672621965408325,6.580463409423828,0.015911918133497238,0.1434735655784607,0.5862776041030884,11
0.43843817710876465,1.4039000272750854,7.301417350769043,0.015911918133497238,0.1434735655784607,0.5862776041030884,11
0.81672203540802,1.1162965297698975,7.996035099029541,-0.4373447299003601,-0.6884734034538269,0.29120808839797974,11
1.0181342363357544,0.8816647529602051,8.626008987426758,-0.4884759187698364,-0.5968633890151978,0.19693495333194733,11
1.0971429347991943,0.7305307984352112,9.083600997924805,-0.5001934766769409,-0.38434937596321106,0.12982527911663055,11
0.9750386476516724,0.6658873558044434,9.411906242370605,-0.4810192883014679,-0.08501891046762466,0.09627043455839157,11
0.7185598015785217,0.6874351501464844,9.536404609680176,-0.43095332384109497,0.23455099761486053,0.10266183316707611,11
0.36421793699264526,0.7927800416946411,9.469367027282715,-0.36810457706451416,0.5003266334533691,0.13834713399410248,11
0.023942016065120697,0.9941922426223755,9.174580574035645,-0.3228321969509125,0.6430678367614746,0.18202169239521027,11
-0.2298433631658554,1.2623428106307983,8.731653213500977,-0.2589181959629059,0.7277538776397705,0.2842840552330017,11
-0.39534255862236023,1.4876971244812012,8.23575496673584,-0.2589181959629059,0.7277538776397705,0.2842840552330017,11
-0.48392802476882935,1.7271173000335693,7.924209117889404,-0.27116838097572327,0.6393395662307739,0.32156720757484436,11
-0.5653308629989624,1.9764134883880615,7.691971302032471,-0.29407089948654175,0.5184355974197388,0.35512205958366394,11
-0.5820902585983276,2.211045265197754,7.6297221183776855,-0.29407089948654175,0.5184355974197388,0.35512205958366394,11
-0.5054758191108704,2.340332269668579,7.701548099517822,-0.330288827419281,0.332552433013916,0.3908073604106903,11
-0.38576576113700867,2.388216257095337,7.823652744293213,-0.3318866491317749,0.24413809180259705,0.3886769115924835,11
-0.2561795711517334,2.4241292476654053,8.000823974609375,-0.32602787017822266,0.19247429072856903,0.37749195098876953,11
-0.16998831927776337,2.4600422382354736,8.185476303100586,-0.30365797877311707,0.11417966336011887,0.3577851355075836,11
-0.19153612852096558,2.5585038661956787,8.367435455322266,-0.2780923843383789,0.04973306506872177,0.3487306535243988,11
-0.14604631066322327,2.65906023979187,8.570942878723145,-0.2690379023551941,0.014580377377569675,0.35245898365974426,11
-0.090979665517807,2.7165210247039795,8.793902397155762,-0.2706357538700104,-0.020039696246385574,0.36311131715774536,11
-0.05267243832349777,2.776376247406006,9.035717010498047,-0.27116838097572327,-0.05572500079870224,0.38441595435142517,11
-0.011971008032560349,2.8314428329467773,9.296984672546387,-0.2674400806427002,-0.09354077279567719,0.41956865787506104,11
0.10295066982507706,2.903268814086914,9.58668327331543,-0.2567877471446991,-0.1233673021197319,0.4446016252040863,11
0.2852092683315277,2.9846715927124023,9.903017044067383,-0.2258959710597992,-0.17503109574317932,0.48135218024253845,11
0.512658417224884,3.082834005355835,10.16877269744873,-0.19127590954303741,-0.19580315053462982,0.49413496255874634,11
0.7544727921485901,3.1693243980407715,10.36988639831543,-0.12523145973682404,-0.19420529901981354,0.48401525616645813,11
0.9247604012489319,3.248333215713501,10.535385131835938,-0.05226299539208412,-0.14999812841415405,0.44992780685424805,11
1.058835744857788,3.291428804397583,10.597634315490723,0.03295564651489258,-0.09620385617017746,0.39879661798477173,11
1.1091139316558838,3.353677988052368,10.57848072052002,0.11817429214715958,-0.04507267102599144,0.3364804685115814,11
1.0971429347991943,3.3848025798797607,10.494684219360352,0.17782734334468842,-0.01524614728987217,0.2826862037181854,11
1.0324994325637817,3.3895909786224365,10.341156005859375,0.25026318430900574,0.001797580742277205,0.21664176881313324,11
0.9271546006202698,3.360860586166382,10.207080841064453,0.2987312972545624,-0.011517832055687904,0.1580539494752884,11
0.773626446723938,3.3249475955963135,10.056245803833008,0.3296230435371399,-0.02802894450724125,0.11171631515026093,11
0.6227917075157166,3.2746694087982178,9.929352760314941,0.3418732285499573,-0.046670522540807724,0.08348763734102249,11
0.4743511974811554,3.248333215713501,9.871891975402832,0.32536211609840393,-0.06264901906251907,0.08029194176197052,11
0.3378817141056061,3.248333215713501,9.867103576660156,0.30192697048187256,-0.07170350104570389,0.09573781490325928,11
0.23942017555236816,3.269881010055542,9.891045570373535,0.27210044860839844,-0.06637733429670334,0.1260969638824463,11
0.19153612852096558,3.3201591968536377,9.97484302520752,0.23534992337226868,-0.038148656487464905,0.1553908735513687,11
0.0933738648891449,3.4063503742218018,10.09934139251709,0.20765386521816254,0.02097177505493164,0.19054356217384338,11
-0.10055647045373917,3.5930981636047363,10.183138847351074,0.2012624591588974,0.1099187359213829,0.21717438101768494,11
-0.18914192914962769,3.7825393676757812,10.252570152282715,0.202327698469162,0.14720189571380615,0.23634858429431915,11
-0.08379705995321274,3.7801451683044434,10.247781753540039,0.18475134670734406,0.047069985419511795,0.23954427242279053,11
0.17238251864910126,3.6508584022521973,10.259753227233887,0.11444596946239471,-0.2309558391571045,0.22622886300086975,11
0.6203975081443787,3.5500025749206543,10.480319023132324,-0.00006657706398982555,-0.5894067287445068,0.18042384088039398,11
1.2288240194320679,3.243544816970825,10.932823181152344,-0.14653611183166504,-0.955846905708313,0.08188978582620621,11
1.7941548824310303,2.680608034133911,11.512818336486816,-0.213645800948143,-1.0719573497772217,0.001997311832383275,11
2.12485408782959,2.053027868270874,12.188282012939453,-0.2562551200389862,-1.0575766563415527,-0.11358047276735306,11
2.2828712463378906,1.5499463081359863,12.741641998291016,-0.22749382257461548,-0.8999221920967102,-0.17962491512298584,11
2.213439464569092,1.1426327228546143,12.954726219177246,-0.09007877111434937,-0.44773074984550476,-0.25206077098846436,11
1.9162591695785522,0.7592611908912659,12.830227851867676,0.05532554164528847,-0.06211639940738678,-0.27336543798446655,11
1.5092449188232422,0.4743511974811554,12.221800804138184,0.29447034001350403,0.5003266334533691,-0.265908807516098,11
1.0324994325637817,0.34267011284828186,11.275492668151855,0.46970120072364807,0.8310815095901489,-0.2360822707414627,11
0.6610989570617676,0.29957449436187744,10.154407501220703,0.5810180306434631,0.985606849193573,-0.2041252851486206,11
0.41689038276672363,0.3115454912185669,9.066842079162598,0.6838130354881287,1.0260857343673706,-0.1524614691734314,11
0.2298433631658554,0.3737947344779968,8.106168746948242,0.7019219994544983,0.9051151871681213,-0.11198262125253677,11
0.1412578970193863,0.4456208050251007,7.401973724365234,0.6699649691581726,0.6830140948295593,-0.08109086751937866,11
0.14844051003456116,0.5318120718002319,6.968324184417725,0.612975001335144,0.451325923204422,-0.06244928762316704,11
0.2777273952960968,0.6180033087730408,6.781576156616211,0.5064517259597778,0.1424083411693573,-0.05073172226548195,11
0.5461772680282593,0.6658873558044434,6.757634162902832,0.34666678309440613,-0.14786766469478607,-0.041677240282297134,11
0.9367313981056213,0.6323685050010681,6.829460144042969,0.19540368020534515,-0.25652143359184265,-0.037416309118270874,11
1.3317747116088867,0.5964555144309998,7.009025573730469,0.03828181326389313,-0.25811928510665894,-0.03528584539890289,11
1.633743405342102,0.6491279602050781,7.299023151397705,-0.1183074414730072,-0.18515081703662872,-0.043807707726955414,11
1.7726070880889893,0.8720879554748535,7.648875713348389,-0.25305941700935364,-0.06584471464157104,-0.05978620424866676,11
1.7845780849456787,1.1689690351486206,7.976881504058838,-0.2988644540309906,-0.005126433912664652,-0.06564498692750931,11
1.7510592937469482,1.4326304197311401,8.30518627166748,-0.2988644540309906,-0.005126433912664652,-0.06564498692750931,11
1.6313492059707642,1.6313492059707642,8.537424087524414,-0.44480136036872864,0.3043237626552582,-0.1306242048740387,11
1.4278420209884644,1.8180968761444092,8.671499252319336,-0.38141998648643494,0.4710327386856079,-0.20359265804290771,11
1.0947487354278564,2.076969861984253,8.659528732299805,-0.38141998648643494,0.4710327386856079,-0.20359265804290771,11
0.7520785927772522,2.3044190406799316,8.590096473693848,-0.3542565703392029,0.4736958146095276,-0.20945143699645996,11
0.43364977836608887,2.532167673110962,8.477568626403809,-0.31377771496772766,0.4300212562084198,-0.20678836107254028,11
0.18914192914962769,2.7620110511779785,8.36264705657959,-0.31377771496772766,0.4300212562084198,-0.20678836107254028,11
0.05506663769483566,2.9415760040283203,8.314763069152832,-0.31377771496772766,0.4300212562084198,-0.20678836107254028,11
0.0,3.0493152141571045,8.286032676696777,-0.22696121037006378,0.19886569678783417,-0.15352670848369598,11
0.040701430290937424,3.0732572078704834,8.317157745361328,-0.21630887687206268,0.1653108447790146,-0.14820054173469543,11
0.12689268589019775,3.0325558185577393,8.39616584777832,-0.21151533722877502,0.1519954353570938,-0.14660269021987915,11
